Time,header.seq,header.stamp.secs,header.stamp.nsecs,header.frame_id,orientation.x,orientation.y,orientation.z,orientation.w,orientation_covariance_0,orientation_covariance_1,orientation_covariance_2,orientation_covariance_3,orientation_covariance_4,orientation_covariance_5,orientation_covariance_6,orientation_covariance_7,orientation_covariance_8,angular_velocity.x,angular_velocity.y,angular_velocity.z,angular_velocity_covariance_0,angular_velocity_covariance_1,angular_velocity_covariance_2,angular_velocity_covariance_3,angular_velocity_covariance_4,angular_velocity_covariance_5,angular_velocity_covariance_6,angular_velocity_covariance_7,angular_velocity_covariance_8,linear_acceleration.x,linear_acceleration.y,linear_acceleration.z,linear_acceleration_covariance_0,linear_acceleration_covariance_1,linear_acceleration_covariance_2,linear_acceleration_covariance_3,linear_acceleration_covariance_4,linear_acceleration_covariance_5,linear_acceleration_covariance_6,linear_acceleration_covariance_7,linear_acceleration_covariance_8
1403636579.8092628,8150,1403636579,758555500,imu4,0.0,0.0,0.0,1.0,99999.9,0.0,0.0,0.0,99999.9,0.0,0.0,0.0,99999.9,-0.0991347015132779,0.14730578886832138,0.02722713633111154,0.0,0.0,0.0,0.0,0.0,0.0,0.0,0.0,0.0,8.147691708333333,-0.3759215833333333,-2.40262925,0.0,0.0,0.0,0.0,0.0,0.0,0.0,0.0,0.0
1403636579.8093286,8151,1403636579,763555500,imu4,0.0,0.0,0.0,1.0,99999.9,0.0,0.0,0.0,99999.9,0.0,0.0,0.0,99999.9,-0.0991347015132779,0.14032447186034408,0.029321531433504733,0.0,0.0,0.0,0.0,0.0,0.0,0.0,0.0,0.0,8.033280791666666,-0.40861041666666664,-2.40262925,0.0,0.0,0.0,0.0,0.0,0.0,0.0,0.0,0.0
1403636579.809457,8152,1403636579,768555500,imu4,0.0,0.0,0.0,1.0,99999.9,0.0,0.0,0.0,99999.9,0.0,0.0,0.0,99999.9,-0.09843656981248018,0.12775810124598494,0.03769911184307752,0.0,0.0,0.0,0.0,0.0,0.0,0.0,0.0,0.0,7.886181041666666,-0.42495483333333334,-2.435318083333333,0.0,0.0,0.0,0.0,0.0,0.0,0.0,0.0,0.0
1403636579.8094964,8153,1403636579,773555500,imu4,0.0,0.0,0.0,1.0,99999.9,0.0,0.0,0.0,99999.9,0.0,0.0,0.0,99999.9,-0.10262536001726656,0.11588986233242347,0.04537856055185257,0.0,0.0,0.0,0.0,0.0,0.0,0.0,0.0,0.0,7.8289755833333325,-0.3759215833333333,-2.4680069166666665,0.0,0.0,0.0,0.0,0.0,0.0,0.0,0.0,0.0
1403636579.8095846,8154,1403636579,778555500,imu4,0.0,0.0,0.0,1.0,99999.9,0.0,0.0,0.0,99999.9,0.0,0.0,0.0,99999.9,-0.1054178868204575,0.10821041362364843,0.05166174585903216,0.0,0.0,0.0,0.0,0.0,0.0,0.0,0.0,0.0,7.714564666666666,-0.40861041666666664,-2.557901208333333,0.0,0.0,0.0,0.0,0.0,0.0,0.0,0.0,0.0
1403636579.8098986,8155,1403636579,783555500,imu4,0.0,0.0,0.0,1.0,99999.9,0.0,0.0,0.0,99999.9,0.0,0.0,0.0,99999.9,-0.10890854532444616,0.09773843811168245,0.056548667764616284,0.0,0.0,0.0,0.0,0.0,0.0,0.0,0.0,0.0,7.657359208333333,-0.43312704166666666,-2.6396232916666666,0.0,0.0,0.0,0.0,0.0,0.0,0.0,0.0,0.0
1403636579.809944,8156,1403636579,788555500,imu4,0.0,0.0,0.0,1.0,99999.9,0.0,0.0,0.0,99999.9,0.0,0.0,0.0,99999.9,-0.11030480872604163,0.08587019919812101,0.0614355896702004,0.0,0.0,0.0,0.0,0.0,0.0,0.0,0.0,0.0,7.591981541666666,-0.465815875,-2.705000958333333,0.0,0.0,0.0,0.0,0.0,0.0,0.0,0.0,0.0
1403636579.809979,8157,1403636579,793555500,imu4,0.0,0.0,0.0,1.0,99999.9,0.0,0.0,0.0,99999.9,0.0,0.0,0.0,99999.9,-0.114493598930828,0.0747000919853573,0.060039326268604934,0.0,0.0,0.0,0.0,0.0,0.0,0.0,0.0,0.0,7.5511205,-0.4739880833333333,-2.7458620000000002,0.0,0.0,0.0,0.0,0.0,0.0,0.0,0.0,0.0
1403636579.8100133,8158,1403636579,798555500,imu4,0.0,0.0,0.0,1.0,99999.9,0.0,0.0,0.0,99999.9,0.0,0.0,0.0,99999.9,-0.11100294042683936,0.057246799465414,0.06213372137099814,0.0,0.0,0.0,0.0,0.0,0.0,0.0,0.0,0.0,7.591981541666666,-0.5148491249999999,-2.8847895416666667,0.0,0.0,0.0,0.0,0.0,0.0,0.0,0.0,0.0
1403636579.8100474,8159,1403636579,803555500,imu4,0.0,0.0,0.0,1.0,99999.9,0.0,0.0,0.0,99999.9,0.0,0.0,0.0,99999.9,-0.11728612573401893,0.04677482395344803,0.0614355896702004,0.0,0.0,0.0,0.0,0.0,0.0,0.0,0.0,0.0,7.624670374999999,-0.48216029166666663,-2.9256505833333333,0.0,0.0,0.0,0.0,0.0,0.0,0.0,0.0,0.0
1403636579.859393,8160,1403636579,808555500,imu4,0.0,0.0,0.0,1.0,99999.9,0.0,0.0,0.0,99999.9,0.0,0.0,0.0,99999.9,-0.12147491593880534,0.033510321638291124,0.05375614096142535,0.0,0.0,0.0,0.0,0.0,0.0,0.0,0.0,0.0,7.60015375,-0.53936575,-2.9338227916666666,0.0,0.0,0.0,0.0,0.0,0.0,0.0,0.0,0.0
1403636579.8594356,8161,1403636579,813555500,imu4,0.0,0.0,0.0,1.0,99999.9,0.0,0.0,0.0,99999.9,0.0,0.0,0.0,99999.9,-0.11938052083641214,0.011868238913561441,0.041189770347066175,0.0,0.0,0.0,0.0,0.0,0.0,0.0,0.0,0.0,7.714564666666666,-0.5230213333333333,-2.966511625,0.0,0.0,0.0,0.0,0.0,0.0,0.0,0.0,0.0
1403636579.859471,8162,1403636579,818555500,imu4,0.0,0.0,0.0,1.0,99999.9,0.0,0.0,0.0,99999.9,0.0,0.0,0.0,99999.9,-0.12007865253720987,-0.0027925268031909274,0.033510321638291124,0.0,0.0,0.0,0.0,0.0,0.0,0.0,0.0,0.0,7.730909083333333,-0.45764366666666667,-2.9338227916666666,0.0,0.0,0.0,0.0,0.0,0.0,0.0,0.0,0.0
1403636579.8595061,8163,1403636579,823555500,imu4,0.0,0.0,0.0,1.0,99999.9,0.0,0.0,0.0,99999.9,0.0,0.0,0.0,99999.9,-0.11728612573401893,-0.019547687622336492,0.02583087292951608,0.0,0.0,0.0,0.0,0.0,0.0,0.0,0.0,0.0,7.837147791666666,-0.4494714583333333,-2.852100708333333,0.0,0.0,0.0,0.0,0.0,0.0,0.0,0.0,0.0
1403636579.8595402,8164,1403636579,828555500,imu4,0.0,0.0,0.0,1.0,99999.9,0.0,0.0,0.0,99999.9,0.0,0.0,0.0,99999.9,-0.11030480872604163,-0.04328416544945937,0.0153588974175501,0.0,0.0,0.0,0.0,0.0,0.0,0.0,0.0,0.0,8.033280791666666,-0.42495483333333334,-2.778550833333333,0.0,0.0,0.0,0.0,0.0,0.0,0.0,0.0,0.0
1403636579.8595772,8165,1403636579,833555500,imu4,0.0,0.0,0.0,1.0,99999.9,0.0,0.0,0.0,99999.9,0.0,0.0,0.0,99999.9,-0.1075122819228507,-0.06492624817418906,0.006283185307179587,0.0,0.0,0.0,0.0,0.0,0.0,0.0,0.0,0.0,8.131347291666666,-0.4004382083333333,-2.7131731666666665,0.0,0.0,0.0,0.0,0.0,0.0,0.0,0.0,0.0
1403636579.8596156,8166,1403636579,838555500,imu4,0.0,0.0,0.0,1.0,99999.9,0.0,0.0,0.0,99999.9,0.0,0.0,0.0,99999.9,-0.09843656981248018,-0.08168140899333462,0.0006981317007977319,0.0,0.0,0.0,0.0,0.0,0.0,0.0,0.0,0.0,8.253930416666666,-0.367749375,-2.655967708333333,0.0,0.0,0.0,0.0,0.0,0.0,0.0,0.0,0.0
1403636579.8596447,8167,1403636579,843555500,imu4,0.0,0.0,0.0,1.0,99999.9,0.0,0.0,0.0,99999.9,0.0,0.0,0.0,99999.9,-0.08936085770210968,-0.09354964790689606,-0.0013962634015954637,0.0,0.0,0.0,0.0,0.0,0.0,0.0,0.0,0.0,8.351996916666666,-0.416782625,-2.623278875,0.0,0.0,0.0,0.0,0.0,0.0,0.0,0.0,0.0
1403636579.8596756,8168,1403636579,848555500,imu4,0.0,0.0,0.0,1.0,99999.9,0.0,0.0,0.0,99999.9,0.0,0.0,0.0,99999.9,-0.07819075048934597,-0.0991347015132779,-0.003490658503988659,0.0,0.0,0.0,0.0,0.0,0.0,0.0,0.0,0.0,8.294791458333332,-0.35140495833333335,-2.557901208333333,0.0,0.0,0.0,0.0,0.0,0.0,0.0,0.0,0.0
1403636579.8597963,8169,1403636579,853555500,imu4,0.0,0.0,0.0,1.0,99999.9,0.0,0.0,0.0,99999.9,0.0,0.0,0.0,99999.9,-0.07120943348136866,-0.1075122819228507,0.0013962634015954637,0.0,0.0,0.0,0.0,0.0,0.0,0.0,0.0,0.0,8.213069375,-0.3840937916666667,-2.606934458333333,0.0,0.0,0.0,0.0,0.0,0.0,0.0,0.0,0.0
1403636579.9084222,8170,1403636579,858555500,imu4,0.0,0.0,0.0,1.0,99999.9,0.0,0.0,0.0,99999.9,0.0,0.0,0.0,99999.9,-0.06562437987498679,-0.12147491593880534,0.009773843811168246,0.0,0.0,0.0,0.0,0.0,0.0,0.0,0.0,0.0,8.245758208333333,-0.40861041666666664,-2.672312125,0.0,0.0,0.0,0.0,0.0,0.0,0.0,0.0,0.0
1403636579.9085958,8171,1403636579,863555500,imu4,0.0,0.0,0.0,1.0,99999.9,0.0,0.0,0.0,99999.9,0.0,0.0,0.0,99999.9,-0.06283185307179587,-0.13055062804917586,0.01815142422074103,0.0,0.0,0.0,0.0,0.0,0.0,0.0,0.0,0.0,8.115002875,-0.44129925,-2.778550833333333,0.0,0.0,0.0,0.0,0.0,0.0,0.0,0.0,0.0
1403636579.9087577,8172,1403636579,868555500,imu4,0.0,0.0,0.0,1.0,99999.9,0.0,0.0,0.0,99999.9,0.0,0.0,0.0,99999.9,-0.05864306286700947,-0.1319468914507713,0.031415926535897934,0.0,0.0,0.0,0.0,0.0,0.0,0.0,0.0,0.0,8.025108583333333,-0.4903325,-2.8847895416666667,0.0,0.0,0.0,0.0,0.0,0.0,0.0,0.0,0.0
1403636579.9088485,8173,1403636579,873555500,imu4,0.0,0.0,0.0,1.0,99999.9,0.0,0.0,0.0,99999.9,0.0,0.0,0.0,99999.9,-0.04817108735504349,-0.1466076571675237,0.047472955654245766,0.0,0.0,0.0,0.0,0.0,0.0,0.0,0.0,0.0,8.000591958333333,-0.4494714583333333,-2.982856041666666,0.0,0.0,0.0,0.0,0.0,0.0,0.0,0.0,0.0
1403636579.9090812,8174,1403636579,878555500,imu4,0.0,0.0,0.0,1.0,99999.9,0.0,0.0,0.0,99999.9,0.0,0.0,0.0,99999.9,-0.04049163864626844,-0.1605702911834783,0.06422811647339133,0.0,0.0,0.0,0.0,0.0,0.0,0.0,0.0,0.0,7.959730916666666,-0.43312704166666666,-3.0890947499999997,0.0,0.0,0.0,0.0,0.0,0.0,0.0,0.0,0.0
1403636579.9091678,8175,1403636579,883555500,imu4,0.0,0.0,0.0,1.0,99999.9,0.0,0.0,0.0,99999.9,0.0,0.0,0.0,99999.9,-0.04049163864626844,-0.16755160819145562,0.07330382858376185,0.0,0.0,0.0,0.0,0.0,0.0,0.0,0.0,0.0,7.976075333333333,-0.40861041666666664,-3.18716125,0.0,0.0,0.0,0.0,0.0,0.0,0.0,0.0,0.0
1403636579.9093328,8176,1403636579,888555500,imu4,0.0,0.0,0.0,1.0,99999.9,0.0,0.0,0.0,99999.9,0.0,0.0,0.0,99999.9,-0.04328416544945937,-0.17662732030182612,0.0767944870877505,0.0,0.0,0.0,0.0,0.0,0.0,0.0,0.0,0.0,7.984247541666667,-0.40861041666666664,-3.2443667083333327,0.0,0.0,0.0,0.0,0.0,0.0,0.0,0.0,0.0
1403636579.909462,8177,1403636579,893555500,imu4,0.0,0.0,0.0,1.0,99999.9,0.0,0.0,0.0,99999.9,0.0,0.0,0.0,99999.9,-0.04468042885105484,-0.18919369091618532,0.08237954069413235,0.0,0.0,0.0,0.0,0.0,0.0,0.0,0.0,0.0,7.967903124999999,-0.367749375,-3.268883333333333,0.0,0.0,0.0,0.0,0.0,0.0,0.0,0.0,0.0
1403636579.9095068,8178,1403636579,898555500,imu4,0.0,0.0,0.0,1.0,99999.9,0.0,0.0,0.0,99999.9,0.0,0.0,0.0,99999.9,-0.04537856055185257,-0.20106192982974677,0.07400196028455958,0.0,0.0,0.0,0.0,0.0,0.0,0.0,0.0,0.0,8.016936375,-0.53936575,-3.211677875,0.0,0.0,0.0,0.0,0.0,0.0,0.0,0.0,0.0
1403636579.9095962,8179,1403636579,903555500,imu4,0.0,0.0,0.0,1.0,99999.9,0.0,0.0,0.0,99999.9,0.0,0.0,0.0,99999.9,-0.039095375244672985,-0.21362830044410594,0.07120943348136866,0.0,0.0,0.0,0.0,0.0,0.0,0.0,0.0,0.0,8.164036124999999,-0.5720545833333333,-3.195333458333333,0.0,0.0,0.0,0.0,0.0,0.0,0.0,0.0,0.0
1403636579.9593103,8180,1403636579,908555500,imu4,0.0,0.0,0.0,1.0,99999.9,0.0,0.0,0.0,99999.9,0.0,0.0,0.0,99999.9,-0.032812189937493394,-0.22270401255447644,0.06492624817418906,0.0,0.0,0.0,0.0,0.0,0.0,0.0,0.0,0.0,8.302963666666667,-0.612915625,-3.170816833333333,0.0,0.0,0.0,0.0,0.0,0.0,0.0,0.0,0.0
1403636579.9593487,8181,1403636579,913555500,imu4,0.0,0.0,0.0,1.0,99999.9,0.0,0.0,0.0,99999.9,0.0,0.0,0.0,99999.9,-0.02024581932313422,-0.2303834612632515,0.06073745796940267,0.0,0.0,0.0,0.0,0.0,0.0,0.0,0.0,0.0,8.466407833333333,-0.6782932916666666,-3.1054391666666663,0.0,0.0,0.0,0.0,0.0,0.0,0.0,0.0,0.0
1403636579.9594424,8182,1403636579,918555500,imu4,0.0,0.0,0.0,1.0,99999.9,0.0,0.0,0.0,99999.9,0.0,0.0,0.0,99999.9,-0.010471975511965976,-0.2324778563656447,0.0614355896702004,0.0,0.0,0.0,0.0,0.0,0.0,0.0,0.0,0.0,8.629852,-0.5965712083333333,-3.0890947499999997,0.0,0.0,0.0,0.0,0.0,0.0,0.0,0.0,0.0
1403636579.959477,8183,1403636579,923555500,imu4,0.0,0.0,0.0,1.0,99999.9,0.0,0.0,0.0,99999.9,0.0,0.0,0.0,99999.9,-0.0013962634015954637,-0.2331759880664424,0.06422811647339133,0.0,0.0,0.0,0.0,0.0,0.0,0.0,0.0,0.0,8.695229666666666,-0.4903325,-3.0482337083333335,0.0,0.0,0.0,0.0,0.0,0.0,0.0,0.0,0.0
1403636579.959782,8184,1403636579,928555500,imu4,0.0,0.0,0.0,1.0,99999.9,0.0,0.0,0.0,99999.9,0.0,0.0,0.0,99999.9,0.00767944870877505,-0.22759093446006054,0.06492624817418906,0.0,0.0,0.0,0.0,0.0,0.0,0.0,0.0,0.0,8.744262916666667,-0.465815875,-3.0318892916666664,0.0,0.0,0.0,0.0,0.0,0.0,0.0,0.0,0.0
1403636579.9598627,8185,1403636579,933555500,imu4,0.0,0.0,0.0,1.0,99999.9,0.0,0.0,0.0,99999.9,0.0,0.0,0.0,99999.9,0.00767944870877505,-0.22689280275926282,0.06911503837897544,0.0,0.0,0.0,0.0,0.0,0.0,0.0,0.0,0.0,8.760607333333333,-0.3759215833333333,-3.0482337083333335,0.0,0.0,0.0,0.0,0.0,0.0,0.0,0.0,0.0
1403636579.9599004,8186,1403636579,938555500,imu4,0.0,0.0,0.0,1.0,99999.9,0.0,0.0,0.0,99999.9,0.0,0.0,0.0,99999.9,0.00767944870877505,-0.2199114857512855,0.08168140899333462,0.0,0.0,0.0,0.0,0.0,0.0,0.0,0.0,0.0,8.687057458333333,-0.35957716666666667,-3.0727503333333335,0.0,0.0,0.0,0.0,0.0,0.0,0.0,0.0,0.0
1403636579.9600253,8187,1403636579,943555500,imu4,0.0,0.0,0.0,1.0,99999.9,0.0,0.0,0.0,99999.9,0.0,0.0,0.0,99999.9,0.004886921905584123,-0.21642082724729686,0.08936085770210968,0.0,0.0,0.0,0.0,0.0,0.0,0.0,0.0,0.0,8.638024208333333,-0.35140495833333335,-3.1299557916666663,0.0,0.0,0.0,0.0,0.0,0.0,0.0,0.0,0.0
1403636579.960196,8188,1403636579,948555500,imu4,0.0,0.0,0.0,1.0,99999.9,0.0,0.0,0.0,99999.9,0.0,0.0,0.0,99999.9,-0.0020943951023931952,-0.21851522234969004,0.10122909661567112,0.0,0.0,0.0,0.0,0.0,0.0,0.0,0.0,0.0,8.621679791666667,-0.21247741666666667,-3.178989041666666,0.0,0.0,0.0,0.0,0.0,0.0,0.0,0.0,0.0
1403636579.9602854,8189,1403636579,953555500,imu4,0.0,0.0,0.0,1.0,99999.9,0.0,0.0,0.0,99999.9,0.0,0.0,0.0,99999.9,-0.00767944870877505,-0.2115339053417127,0.10611601852125524,0.0,0.0,0.0,0.0,0.0,0.0,0.0,0.0,0.0,8.597163166666666,-0.122583125,-3.178989041666666,0.0,0.0,0.0,0.0,0.0,0.0,0.0,0.0,0.0
1403636580.0084007,8190,1403636579,958555500,imu4,0.0,0.0,0.0,1.0,99999.9,0.0,0.0,0.0,99999.9,0.0,0.0,0.0,99999.9,-0.02024581932313422,-0.21013764194011728,0.1075122819228507,0.0,0.0,0.0,0.0,0.0,0.0,0.0,0.0,0.0,8.580818749999999,-0.07354987499999999,-3.195333458333333,0.0,0.0,0.0,0.0,0.0,0.0,0.0,0.0,0.0
1403636580.008473,8191,1403636579,963555500,imu4,0.0,0.0,0.0,1.0,99999.9,0.0,0.0,0.0,99999.9,0.0,0.0,0.0,99999.9,-0.029321531433504733,-0.2115339053417127,0.11100294042683936,0.0,0.0,0.0,0.0,0.0,0.0,0.0,0.0,0.0,8.588990958333333,-0.122583125,-3.2852277500000002,0.0,0.0,0.0,0.0,0.0,0.0,0.0,0.0,0.0
1403636580.0086033,8192,1403636579,968555500,imu4,0.0,0.0,0.0,1.0,99999.9,0.0,0.0,0.0,99999.9,0.0,0.0,0.0,99999.9,-0.03839724354387525,-0.20385445663293766,0.11379546723003027,0.0,0.0,0.0,0.0,0.0,0.0,0.0,0.0,0.0,8.523613291666665,-0.196133,-3.268883333333333,0.0,0.0,0.0,0.0,0.0,0.0,0.0,0.0,0.0
1403636580.008688,8193,1403636579,973555500,imu4,0.0,0.0,0.0,1.0,99999.9,0.0,0.0,0.0,99999.9,0.0,0.0,0.0,99999.9,-0.04049163864626844,-0.1954768762233649,0.12147491593880534,0.0,0.0,0.0,0.0,0.0,0.0,0.0,0.0,0.0,8.499096666666667,-0.32688833333333334,-3.2280222916666665,0.0,0.0,0.0,0.0,0.0,0.0,0.0,0.0,0.0
1403636580.0088513,8194,1403636579,978555500,imu4,0.0,0.0,0.0,1.0,99999.9,0.0,0.0,0.0,99999.9,0.0,0.0,0.0,99999.9,-0.033510321638291124,-0.19757127132575814,0.13892820845874865,0.0,0.0,0.0,0.0,0.0,0.0,0.0,0.0,0.0,8.556302125,-0.53936575,-3.2361945,0.0,0.0,0.0,0.0,0.0,0.0,0.0,0.0,0.0
1403636580.0089393,8195,1403636579,983555500,imu4,0.0,0.0,0.0,1.0,99999.9,0.0,0.0,0.0,99999.9,0.0,0.0,0.0,99999.9,-0.020943951023931952,-0.18779742751458986,0.15219271077390556,0.0,0.0,0.0,0.0,0.0,0.0,0.0,0.0,0.0,8.523613291666665,-0.6864655000000001,-3.211677875,0.0,0.0,0.0,0.0,0.0,0.0,0.0,0.0,0.0
1403636580.009026,8196,1403636579,988555500,imu4,0.0,0.0,0.0,1.0,99999.9,0.0,0.0,0.0,99999.9,0.0,0.0,0.0,99999.9,-0.004886921905584123,-0.18011797880581482,0.1626646862858715,0.0,0.0,0.0,0.0,0.0,0.0,0.0,0.0,0.0,8.580818749999999,-0.8499096666666667,-3.2361945,0.0,0.0,0.0,0.0,0.0,0.0,0.0,0.0,0.0
1403636580.0091152,8197,1403636579,993555500,imu4,0.0,0.0,0.0,1.0,99999.9,0.0,0.0,0.0,99999.9,0.0,0.0,0.0,99999.9,0.009773843811168246,-0.17383479349863523,0.1689478715930511,0.0,0.0,0.0,0.0,0.0,0.0,0.0,0.0,0.0,8.638024208333333,-0.8662540833333333,-3.2361945,0.0,0.0,0.0,0.0,0.0,0.0,0.0,0.0,0.0
1403636580.0092032,8198,1403636579,998555500,imu4,0.0,0.0,0.0,1.0,99999.9,0.0,0.0,0.0,99999.9,0.0,0.0,0.0,99999.9,0.024434609527920613,-0.1605702911834783,0.16964600329384885,0.0,0.0,0.0,0.0,0.0,0.0,0.0,0.0,0.0,8.638024208333333,-0.8662540833333333,-3.219850083333333,0.0,0.0,0.0,0.0,0.0,0.0,0.0,0.0,0.0
1403636580.009293,8199,1403636580,3555500,imu4,0.0,0.0,0.0,1.0,99999.9,0.0,0.0,0.0,99999.9,0.0,0.0,0.0,99999.9,0.032812189937493394,-0.1445132620651305,0.16824973989225336,0.0,0.0,0.0,0.0,0.0,0.0,0.0,0.0,0.0,8.670713041666666,-0.8253930416666666,-3.2280222916666665,0.0,0.0,0.0,0.0,0.0,0.0,0.0,0.0,0.0
1403636580.0698237,8200,1403636580,8555500,imu4,0.0,0.0,0.0,1.0,99999.9,0.0,0.0,0.0,99999.9,0.0,0.0,0.0,99999.9,0.039095375244672985,-0.13683381335635544,0.15498523757709648,0.0,0.0,0.0,0.0,0.0,0.0,0.0,0.0,0.0,8.744262916666667,-0.53936575,-3.317916583333333,0.0,0.0,0.0,0.0,0.0,0.0,0.0,0.0,0.0
1403636580.0698695,8201,1403636580,13555500,imu4,0.0,0.0,0.0,1.0,99999.9,0.0,0.0,0.0,99999.9,0.0,0.0,0.0,99999.9,0.039095375244672985,-0.13124875974997358,0.13962634015954636,0.0,0.0,0.0,0.0,0.0,0.0,0.0,0.0,0.0,8.809640583333332,-0.367749375,-3.3832942499999996,0.0,0.0,0.0,0.0,0.0,0.0,0.0,0.0,0.0
1403636580.0699036,8202,1403636580,18555500,imu4,0.0,0.0,0.0,1.0,99999.9,0.0,0.0,0.0,99999.9,0.0,0.0,0.0,99999.9,0.03420845333908886,-0.12147491593880534,0.13543754995475996,0.0,0.0,0.0,0.0,0.0,0.0,0.0,0.0,0.0,8.899534874999999,-0.17978858333333333,-3.3751220416666667,0.0,0.0,0.0,0.0,0.0,0.0,0.0,0.0,0.0
1403636580.069937,8203,1403636580,23555500,imu4,0.0,0.0,0.0,1.0,99999.9,0.0,0.0,0.0,99999.9,0.0,0.0,0.0,99999.9,0.017453292519943295,-0.12356931104119852,0.12985249634837812,0.0,0.0,0.0,0.0,0.0,0.0,0.0,0.0,0.0,8.97308475,0.016344416666666667,-3.3996386666666667,0.0,0.0,0.0,0.0,0.0,0.0,0.0,0.0,0.0
1403636580.06997,8204,1403636580,28555500,imu4,0.0,0.0,0.0,1.0,99999.9,0.0,0.0,0.0,99999.9,0.0,0.0,0.0,99999.9,0.003490658503988659,-0.1270599695451872,0.12636183784438945,0.0,0.0,0.0,0.0,0.0,0.0,0.0,0.0,0.0,9.030290208333332,0.10623870833333333,-3.4241552916666667,0.0,0.0,0.0,0.0,0.0,0.0,0.0,0.0,0.0
1403636580.070425,8205,1403636580,33555500,imu4,0.0,0.0,0.0,1.0,99999.9,0.0,0.0,0.0,99999.9,0.0,0.0,0.0,99999.9,-0.013962634015954637,-0.12775810124598494,0.12217304763960307,0.0,0.0,0.0,0.0,0.0,0.0,0.0,0.0,0.0,9.193734375,0.13075533333333333,-3.391466458333333,0.0,0.0,0.0,0.0,0.0,0.0,0.0,0.0,0.0
1403636580.0707433,8206,1403636580,38555500,imu4,0.0,0.0,0.0,1.0,99999.9,0.0,0.0,0.0,99999.9,0.0,0.0,0.0,99999.9,-0.027925268031909273,-0.12985249634837812,0.1165879940332212,0.0,0.0,0.0,0.0,0.0,0.0,0.0,0.0,0.0,9.422556208333333,0.16344416666666667,-3.391466458333333,0.0,0.0,0.0,0.0,0.0,0.0,0.0,0.0,0.0
1403636580.070782,8207,1403636580,43555500,imu4,0.0,0.0,0.0,1.0,99999.9,0.0,0.0,0.0,99999.9,0.0,0.0,0.0,99999.9,-0.03700098014227979,-0.12426744274199628,0.1075122819228507,0.0,0.0,0.0,0.0,0.0,0.0,0.0,0.0,0.0,9.528794916666666,0.024516625,-3.3506054166666663,0.0,0.0,0.0,0.0,0.0,0.0,0.0,0.0,0.0
1403636580.0710473,8208,1403636580,48555500,imu4,0.0,0.0,0.0,1.0,99999.9,0.0,0.0,0.0,99999.9,0.0,0.0,0.0,99999.9,-0.04328416544945937,-0.12356931104119852,0.09494591130849153,0.0,0.0,0.0,0.0,0.0,0.0,0.0,0.0,0.0,9.626861416666666,-0.057205458333333334,-3.3506054166666663,0.0,0.0,0.0,0.0,0.0,0.0,0.0,0.0,0.0
1403636580.071302,8209,1403636580,53555500,imu4,0.0,0.0,0.0,1.0,99999.9,0.0,0.0,0.0,99999.9,0.0,0.0,0.0,99999.9,-0.04328416544945937,-0.11728612573401893,0.09215338450530061,0.0,0.0,0.0,0.0,0.0,0.0,0.0,0.0,0.0,9.692239083333332,-0.057205458333333334,-3.366949833333333,0.0,0.0,0.0,0.0,0.0,0.0,0.0,0.0,0.0
1403636580.112663,8210,1403636580,58555500,imu4,0.0,0.0,0.0,1.0,99999.9,0.0,0.0,0.0,99999.9,0.0,0.0,0.0,99999.9,-0.041887902047863905,-0.11379546723003027,0.09215338450530061,0.0,0.0,0.0,0.0,0.0,0.0,0.0,0.0,0.0,9.586000375,-0.220649625,-3.342433208333333,0.0,0.0,0.0,0.0,0.0,0.0,0.0,0.0,0.0
1403636580.1127014,8211,1403636580,63555500,imu4,0.0,0.0,0.0,1.0,99999.9,0.0,0.0,0.0,99999.9,0.0,0.0,0.0,99999.9,-0.03420845333908886,-0.11030480872604163,0.0991347015132779,0.0,0.0,0.0,0.0,0.0,0.0,0.0,0.0,0.0,9.553311541666666,-0.367749375,-3.391466458333333,0.0,0.0,0.0,0.0,0.0,0.0,0.0,0.0,0.0
1403636580.1127408,8212,1403636580,68555500,imu4,0.0,0.0,0.0,1.0,99999.9,0.0,0.0,0.0,99999.9,0.0,0.0,0.0,99999.9,-0.02583087292951608,-0.11100294042683936,0.12356931104119852,0.0,0.0,0.0,0.0,0.0,0.0,0.0,0.0,0.0,9.381695166666667,-0.43312704166666666,-3.415983083333333,0.0,0.0,0.0,0.0,0.0,0.0,0.0,0.0,0.0
1403636580.1127756,8213,1403636580,73555500,imu4,0.0,0.0,0.0,1.0,99999.9,0.0,0.0,0.0,99999.9,0.0,0.0,0.0,99999.9,-0.013962634015954637,-0.10821041362364843,0.14381513036433274,0.0,0.0,0.0,0.0,0.0,0.0,0.0,0.0,0.0,9.324489708333333,-0.4985047083333333,-3.415983083333333,0.0,0.0,0.0,0.0,0.0,0.0,0.0,0.0,0.0
1403636580.11281,8214,1403636580,78555500,imu4,0.0,0.0,0.0,1.0,99999.9,0.0,0.0,0.0,99999.9,0.0,0.0,0.0,99999.9,0.0020943951023931952,-0.09843656981248018,0.1668534764906579,0.0,0.0,0.0,0.0,0.0,0.0,0.0,0.0,0.0,9.398039583333333,-0.6456044583333332,-3.489532958333333,0.0,0.0,0.0,0.0,0.0,0.0,0.0,0.0,0.0
1403636580.112839,8215,1403636580,83555500,imu4,0.0,0.0,0.0,1.0,99999.9,0.0,0.0,0.0,99999.9,0.0,0.0,0.0,99999.9,0.011868238913561441,-0.08936085770210968,0.182212373908208,0.0,0.0,0.0,0.0,0.0,0.0,0.0,0.0,0.0,9.422556208333333,-0.6701210833333332,-3.6529771249999996,0.0,0.0,0.0,0.0,0.0,0.0,0.0,0.0,0.0
1403636580.1129074,8216,1403636580,88555500,imu4,0.0,0.0,0.0,1.0,99999.9,0.0,0.0,0.0,99999.9,0.0,0.0,0.0,99999.9,0.023736477827122883,-0.07330382858376185,0.19268434942017396,0.0,0.0,0.0,0.0,0.0,0.0,0.0,0.0,0.0,9.389867375,-0.6456044583333332,-3.77556025,0.0,0.0,0.0,0.0,0.0,0.0,0.0,0.0,0.0
1403636580.1130233,8217,1403636580,93555500,imu4,0.0,0.0,0.0,1.0,99999.9,0.0,0.0,0.0,99999.9,0.0,0.0,0.0,99999.9,0.029321531433504733,-0.06283185307179587,0.19687313962496036,0.0,0.0,0.0,0.0,0.0,0.0,0.0,0.0,0.0,9.36535075,-0.63743225,-3.832765708333333,0.0,0.0,0.0,0.0,0.0,0.0,0.0,0.0,0.0
1403636580.1130588,8218,1403636580,98555500,imu4,0.0,0.0,0.0,1.0,99999.9,0.0,0.0,0.0,99999.9,0.0,0.0,0.0,99999.9,0.029321531433504733,-0.05794493116621174,0.19338248112097173,0.0,0.0,0.0,0.0,0.0,0.0,0.0,0.0,0.0,9.308145291666667,-0.5230213333333333,-3.8491101249999997,0.0,0.0,0.0,0.0,0.0,0.0,0.0,0.0,0.0
1403636580.1130931,8219,1403636580,103555500,imu4,0.0,0.0,0.0,1.0,99999.9,0.0,0.0,0.0,99999.9,0.0,0.0,0.0,99999.9,0.0307177948351002,-0.050963614158234416,0.18430676901060122,0.0,0.0,0.0,0.0,0.0,0.0,0.0,0.0,0.0,9.218250999999999,-0.5066769166666666,-3.881798958333333,0.0,0.0,0.0,0.0,0.0,0.0,0.0,0.0,0.0
1403636580.1593053,8220,1403636580,108555500,imu4,0.0,0.0,0.0,1.0,99999.9,0.0,0.0,0.0,99999.9,0.0,0.0,0.0,99999.9,0.023038346126325153,-0.05026548245743669,0.17523105690023066,0.0,0.0,0.0,0.0,0.0,0.0,0.0,0.0,0.0,9.242767624999999,-0.4985047083333333,-3.955348833333333,0.0,0.0,0.0,0.0,0.0,0.0,0.0,0.0,0.0
1403636580.1593425,8221,1403636580,113555500,imu4,0.0,0.0,0.0,1.0,99999.9,0.0,0.0,0.0,99999.9,0.0,0.0,0.0,99999.9,0.02024581932313422,-0.05235987755982988,0.16336281798666924,0.0,0.0,0.0,0.0,0.0,0.0,0.0,0.0,0.0,9.36535075,-0.43312704166666666,-3.9880376666666666,0.0,0.0,0.0,0.0,0.0,0.0,0.0,0.0,0.0
1403636580.159432,8222,1403636580,118555500,imu4,0.0,0.0,0.0,1.0,99999.9,0.0,0.0,0.0,99999.9,0.0,0.0,0.0,99999.9,0.023038346126325153,-0.050963614158234416,0.15428710587629874,0.0,0.0,0.0,0.0,0.0,0.0,0.0,0.0,0.0,9.398039583333333,-0.3840937916666667,-3.898143375,0.0,0.0,0.0,0.0,0.0,0.0,0.0,0.0,0.0
1403636580.1595771,8223,1403636580,123555500,imu4,0.0,0.0,0.0,1.0,99999.9,0.0,0.0,0.0,99999.9,0.0,0.0,0.0,99999.9,0.017453292519943295,-0.05375614096142535,0.14590952546672595,0.0,0.0,0.0,0.0,0.0,0.0,0.0,0.0,0.0,9.479761666666667,-0.3759215833333333,-3.8654545416666664,0.0,0.0,0.0,0.0,0.0,0.0,0.0,0.0,0.0
1403636580.15967,8224,1403636580,128555500,imu4,0.0,0.0,0.0,1.0,99999.9,0.0,0.0,0.0,99999.9,0.0,0.0,0.0,99999.9,0.010471975511965976,-0.05166174585903216,0.13334315485236678,0.0,0.0,0.0,0.0,0.0,0.0,0.0,0.0,0.0,9.561483749999999,-0.3840937916666667,-3.7919046666666665,0.0,0.0,0.0,0.0,0.0,0.0,0.0,0.0,0.0
1403636580.159707,8225,1403636580,133555500,imu4,0.0,0.0,0.0,1.0,99999.9,0.0,0.0,0.0,99999.9,0.0,0.0,0.0,99999.9,0.003490658503988659,-0.05585053606381855,0.12566370614359174,0.0,0.0,0.0,0.0,0.0,0.0,0.0,0.0,0.0,9.610517,-0.4004382083333333,-3.702010375,0.0,0.0,0.0,0.0,0.0,0.0,0.0,0.0,0.0
1403636580.159744,8226,1403636580,138555500,imu4,0.0,0.0,0.0,1.0,99999.9,0.0,0.0,0.0,99999.9,0.0,0.0,0.0,99999.9,0.006981317007977318,-0.059341194567807204,0.11519173063162574,0.0,0.0,0.0,0.0,0.0,0.0,0.0,0.0,0.0,9.659550249999999,-0.48216029166666663,-3.5549106249999998,0.0,0.0,0.0,0.0,0.0,0.0,0.0,0.0,0.0
1403636580.1597743,8227,1403636580,143555500,imu4,0.0,0.0,0.0,1.0,99999.9,0.0,0.0,0.0,99999.9,0.0,0.0,0.0,99999.9,0.00767944870877505,-0.06073745796940267,0.11309733552923257,0.0,0.0,0.0,0.0,0.0,0.0,0.0,0.0,0.0,9.749444541666666,-0.4494714583333333,-3.530394,0.0,0.0,0.0,0.0,0.0,0.0,0.0,0.0,0.0
1403636580.1598647,8228,1403636580,148555500,imu4,0.0,0.0,0.0,1.0,99999.9,0.0,0.0,0.0,99999.9,0.0,0.0,0.0,99999.9,0.013962634015954637,-0.05864306286700947,0.1165879940332212,0.0,0.0,0.0,0.0,0.0,0.0,0.0,0.0,0.0,9.773961166666666,-0.3759215833333333,-3.505877375,0.0,0.0,0.0,0.0,0.0,0.0,0.0,0.0,0.0
1403636580.159953,8229,1403636580,153555500,imu4,0.0,0.0,0.0,1.0,99999.9,0.0,0.0,0.0,99999.9,0.0,0.0,0.0,99999.9,0.016755160819145562,-0.05585053606381855,0.124965574442794,0.0,0.0,0.0,0.0,0.0,0.0,0.0,0.0,0.0,9.855683249999998,-0.220649625,-3.587599458333333,0.0,0.0,0.0,0.0,0.0,0.0,0.0,0.0,0.0
1403636580.2093053,8230,1403636580,158555500,imu4,0.0,0.0,0.0,1.0,99999.9,0.0,0.0,0.0,99999.9,0.0,0.0,0.0,99999.9,0.01117010721276371,-0.05026548245743669,0.12985249634837812,0.0,0.0,0.0,0.0,0.0,0.0,0.0,0.0,0.0,9.929233125,-0.08989429166666667,-3.6856659583333333,0.0,0.0,0.0,0.0,0.0,0.0,0.0,0.0,0.0
1403636580.2094061,8231,1403636580,163555500,imu4,0.0,0.0,0.0,1.0,99999.9,0.0,0.0,0.0,99999.9,0.0,0.0,0.0,99999.9,0.008377580409572781,-0.05166174585903216,0.12775810124598494,0.0,0.0,0.0,0.0,0.0,0.0,0.0,0.0,0.0,9.651378041666666,-0.269682875,-3.5549106249999998,0.0,0.0,0.0,0.0,0.0,0.0,0.0,0.0,0.0
1403636580.2094948,8232,1403636580,168555500,imu4,0.0,0.0,0.0,1.0,99999.9,0.0,0.0,0.0,99999.9,0.0,0.0,0.0,99999.9,0.013962634015954637,-0.06981317007977318,0.12566370614359174,0.0,0.0,0.0,0.0,0.0,0.0,0.0,0.0,0.0,9.561483749999999,-0.4985047083333333,-3.3832942499999996,0.0,0.0,0.0,0.0,0.0,0.0,0.0,0.0,0.0
1403636580.2095325,8233,1403636580,173555500,imu4,0.0,0.0,0.0,1.0,99999.9,0.0,0.0,0.0,99999.9,0.0,0.0,0.0,99999.9,0.025132741228718346,-0.0747000919853573,0.1291543646475804,0.0,0.0,0.0,0.0,0.0,0.0,0.0,0.0,0.0,9.635033625,-0.5883989999999999,-3.5957716666666664,0.0,0.0,0.0,0.0,0.0,0.0,0.0,0.0,0.0
1403636580.2095668,8234,1403636580,178555500,imu4,0.0,0.0,0.0,1.0,99999.9,0.0,0.0,0.0,99999.9,0.0,0.0,0.0,99999.9,0.033510321638291124,-0.07609635538695278,0.11588986233242347,0.0,0.0,0.0,0.0,0.0,0.0,0.0,0.0,0.0,9.757616749999999,-0.416782625,-3.8164212916666664,0.0,0.0,0.0,0.0,0.0,0.0,0.0,0.0,0.0
1403636580.209653,8235,1403636580,183555500,imu4,0.0,0.0,0.0,1.0,99999.9,0.0,0.0,0.0,99999.9,0.0,0.0,0.0,99999.9,0.028623399732707,-0.06492624817418906,0.09634217471008698,0.0,0.0,0.0,0.0,0.0,0.0,0.0,0.0,0.0,9.880199875,-0.3105439166666667,-3.9390044166666667,0.0,0.0,0.0,0.0,0.0,0.0,0.0,0.0,0.0
1403636580.2096887,8236,1403636580,188555500,imu4,0.0,0.0,0.0,1.0,99999.9,0.0,0.0,0.0,99999.9,0.0,0.0,0.0,99999.9,0.01884955592153876,-0.05445427266222308,0.08866272600131193,0.0,0.0,0.0,0.0,0.0,0.0,0.0,0.0,0.0,9.757616749999999,-0.26151066666666667,-3.947176625,0.0,0.0,0.0,0.0,0.0,0.0,0.0,0.0,0.0
1403636580.2097244,8237,1403636580,193555500,imu4,0.0,0.0,0.0,1.0,99999.9,0.0,0.0,0.0,99999.9,0.0,0.0,0.0,99999.9,0.014660765716752367,-0.0635299847725936,0.07749261878854824,0.0,0.0,0.0,0.0,0.0,0.0,0.0,0.0,0.0,9.545139333333333,-0.3840937916666667,-3.87362675,0.0,0.0,0.0,0.0,0.0,0.0,0.0,0.0,0.0
1403636580.2098145,8238,1403636580,198555500,imu4,0.0,0.0,0.0,1.0,99999.9,0.0,0.0,0.0,99999.9,0.0,0.0,0.0,99999.9,0.0041887902047863905,-0.06422811647339133,0.056548667764616284,0.0,0.0,0.0,0.0,0.0,0.0,0.0,0.0,0.0,9.7085835,-0.4739880833333333,-3.898143375,0.0,0.0,0.0,0.0,0.0,0.0,0.0,0.0,0.0
1403636580.2098513,8239,1403636580,203555500,imu4,0.0,0.0,0.0,1.0,99999.9,0.0,0.0,0.0,99999.9,0.0,0.0,0.0,99999.9,-0.0027925268031909274,-0.07539822368615504,0.039793506945470715,0.0,0.0,0.0,0.0,0.0,0.0,0.0,0.0,0.0,9.765788958333333,-0.4903325,-4.004382083333333,0.0,0.0,0.0,0.0,0.0,0.0,0.0,0.0,0.0
1403636580.2594428,8240,1403636580,208555500,imu4,0.0,0.0,0.0,1.0,99999.9,0.0,0.0,0.0,99999.9,0.0,0.0,0.0,99999.9,-0.005585053606381855,-0.08168140899333462,0.030019663134302467,0.0,0.0,0.0,0.0,0.0,0.0,0.0,0.0,0.0,9.782133375,-0.5557101666666666,-3.955348833333333,0.0,0.0,0.0,0.0,0.0,0.0,0.0,0.0,0.0
1403636580.25948,8241,1403636580,213555500,imu4,0.0,0.0,0.0,1.0,99999.9,0.0,0.0,0.0,99999.9,0.0,0.0,0.0,99999.9,-0.00767944870877505,-0.07819075048934597,0.027925268031909273,0.0,0.0,0.0,0.0,0.0,0.0,0.0,0.0,0.0,9.888372083333332,-0.63743225,-3.955348833333333,0.0,0.0,0.0,0.0,0.0,0.0,0.0,0.0,0.0
1403636580.2595174,8242,1403636580,218555500,imu4,0.0,0.0,0.0,1.0,99999.9,0.0,0.0,0.0,99999.9,0.0,0.0,0.0,99999.9,-0.00767944870877505,-0.08028514559173915,0.033510321638291124,0.0,0.0,0.0,0.0,0.0,0.0,0.0,0.0,0.0,9.888372083333332,-0.6047434166666666,-3.92266,0.0,0.0,0.0,0.0,0.0,0.0,0.0,0.0,0.0
1403636580.2596095,8243,1403636580,223555500,imu4,0.0,0.0,0.0,1.0,99999.9,0.0,0.0,0.0,99999.9,0.0,0.0,0.0,99999.9,-0.0041887902047863905,-0.08447393579652555,0.041887902047863905,0.0,0.0,0.0,0.0,0.0,0.0,0.0,0.0,0.0,9.970094166666666,-0.5720545833333333,-3.8899711666666663,0.0,0.0,0.0,0.0,0.0,0.0,0.0,0.0,0.0
1403636580.2596455,8244,1403636580,228555500,imu4,0.0,0.0,0.0,1.0,99999.9,0.0,0.0,0.0,99999.9,0.0,0.0,0.0,99999.9,-0.0020943951023931952,-0.07330382858376185,0.056548667764616284,0.0,0.0,0.0,0.0,0.0,0.0,0.0,0.0,0.0,9.994610791666668,-0.6537766666666667,-3.8164212916666664,0.0,0.0,0.0,0.0,0.0,0.0,0.0,0.0,0.0
1403636580.2596784,8245,1403636580,233555500,imu4,0.0,0.0,0.0,1.0,99999.9,0.0,0.0,0.0,99999.9,0.0,0.0,0.0,99999.9,-0.0027925268031909274,-0.07819075048934597,0.06702064327658225,0.0,0.0,0.0,0.0,0.0,0.0,0.0,0.0,0.0,9.880199875,-0.7109821249999999,-3.77556025,0.0,0.0,0.0,0.0,0.0,0.0,0.0,0.0,0.0
1403636580.2597656,8246,1403636580,238555500,imu4,0.0,0.0,0.0,1.0,99999.9,0.0,0.0,0.0,99999.9,0.0,0.0,0.0,99999.9,0.004886921905584123,-0.07888888219014369,0.07190756518216637,0.0,0.0,0.0,0.0,0.0,0.0,0.0,0.0,0.0,9.839338833333333,-0.661948875,-3.759215833333333,0.0,0.0,0.0,0.0,0.0,0.0,0.0,0.0,0.0
1403636580.259801,8247,1403636580,243555500,imu4,0.0,0.0,0.0,1.0,99999.9,0.0,0.0,0.0,99999.9,0.0,0.0,0.0,99999.9,0.01117010721276371,-0.08098327729253688,0.07120943348136866,0.0,0.0,0.0,0.0,0.0,0.0,0.0,0.0,0.0,9.724927916666667,-0.6292600416666666,-3.751043625,0.0,0.0,0.0,0.0,0.0,0.0,0.0,0.0,0.0
1403636580.2598848,8248,1403636580,248555500,imu4,0.0,0.0,0.0,1.0,99999.9,0.0,0.0,0.0,99999.9,0.0,0.0,0.0,99999.9,0.010471975511965976,-0.09285151620609833,0.06911503837897544,0.0,0.0,0.0,0.0,0.0,0.0,0.0,0.0,0.0,9.790305583333332,-0.5230213333333333,-3.8164212916666664,0.0,0.0,0.0,0.0,0.0,0.0,0.0,0.0,0.0
1403636580.259918,8249,1403636580,253555500,imu4,0.0,0.0,0.0,1.0,99999.9,0.0,0.0,0.0,99999.9,0.0,0.0,0.0,99999.9,0.006283185307179587,-0.09494591130849153,0.060039326268604934,0.0,0.0,0.0,0.0,0.0,0.0,0.0,0.0,0.0,9.822994416666667,-0.392266,-3.881798958333333,0.0,0.0,0.0,0.0,0.0,0.0,0.0,0.0,0.0
1403636580.3092968,8250,1403636580,258555500,imu4,0.0,0.0,0.0,1.0,99999.9,0.0,0.0,0.0,99999.9,0.0,0.0,0.0,99999.9,0.0027925268031909274,-0.0942477796076938,0.05026548245743669,0.0,0.0,0.0,0.0,0.0,0.0,0.0,0.0,0.0,9.765788958333333,-0.416782625,-3.9635210416666666,0.0,0.0,0.0,0.0,0.0,0.0,0.0,0.0,0.0
1403636580.3094745,8251,1403636580,263555500,imu4,0.0,0.0,0.0,1.0,99999.9,0.0,0.0,0.0,99999.9,0.0,0.0,0.0,99999.9,0.0027925268031909274,-0.10053096491487339,0.039793506945470715,0.0,0.0,0.0,0.0,0.0,0.0,0.0,0.0,0.0,9.872027666666666,-0.40861041666666664,-4.053415333333333,0.0,0.0,0.0,0.0,0.0,0.0,0.0,0.0,0.0
1403636580.3095095,8252,1403636580,268555500,imu4,0.0,0.0,0.0,1.0,99999.9,0.0,0.0,0.0,99999.9,0.0,0.0,0.0,99999.9,-0.0027925268031909274,-0.09983283321407566,0.024434609527920613,0.0,0.0,0.0,0.0,0.0,0.0,0.0,0.0,0.0,9.782133375,-0.4004382083333333,-4.110620791666666,0.0,0.0,0.0,0.0,0.0,0.0,0.0,0.0,0.0
1403636580.3102899,8253,1403636580,273555500,imu4,0.0,0.0,0.0,1.0,99999.9,0.0,0.0,0.0,99999.9,0.0,0.0,0.0,99999.9,-0.010471975511965976,-0.1075122819228507,0.006981317007977318,0.0,0.0,0.0,0.0,0.0,0.0,0.0,0.0,0.0,9.765788958333333,-0.42495483333333334,-4.175998458333333,0.0,0.0,0.0,0.0,0.0,0.0,0.0,0.0,0.0
1403636580.3103325,8254,1403636580,278555500,imu4,0.0,0.0,0.0,1.0,99999.9,0.0,0.0,0.0,99999.9,0.0,0.0,0.0,99999.9,-0.014660765716752367,-0.12147491593880534,-0.00767944870877505,0.0,0.0,0.0,0.0,0.0,0.0,0.0,0.0,0.0,9.831166624999998,-0.318716125,-4.249548333333333,0.0,0.0,0.0,0.0,0.0,0.0,0.0,0.0,0.0
1403636580.3103683,8255,1403636580,283555500,imu4,0.0,0.0,0.0,1.0,99999.9,0.0,0.0,0.0,99999.9,0.0,0.0,0.0,99999.9,-0.017453292519943295,-0.12566370614359174,-0.01884955592153876,0.0,0.0,0.0,0.0,0.0,0.0,0.0,0.0,0.0,9.790305583333332,-0.29419949999999995,-4.257720541666666,0.0,0.0,0.0,0.0,0.0,0.0,0.0,0.0,0.0
1403636580.3104546,8256,1403636580,288555500,imu4,0.0,0.0,0.0,1.0,99999.9,0.0,0.0,0.0,99999.9,0.0,0.0,0.0,99999.9,-0.020943951023931952,-0.13753194505715316,-0.033510321638291124,0.0,0.0,0.0,0.0,0.0,0.0,0.0,0.0,0.0,9.765788958333333,-0.318716125,-4.306753791666666,0.0,0.0,0.0,0.0,0.0,0.0,0.0,0.0,0.0
1403636580.3105187,8257,1403636580,293555500,imu4,0.0,0.0,0.0,1.0,99999.9,0.0,0.0,0.0,99999.9,0.0,0.0,0.0,99999.9,-0.02722713633111154,-0.14381513036433274,-0.0439822971502571,0.0,0.0,0.0,0.0,0.0,0.0,0.0,0.0,0.0,9.782133375,-0.35140495833333335,-4.3312704166666665,0.0,0.0,0.0,0.0,0.0,0.0,0.0,0.0,0.0
1403636580.3105562,8258,1403636580,298555500,imu4,0.0,0.0,0.0,1.0,99999.9,0.0,0.0,0.0,99999.9,0.0,0.0,0.0,99999.9,-0.02722713633111154,-0.15428710587629874,-0.04677482395344803,0.0,0.0,0.0,0.0,0.0,0.0,0.0,0.0,0.0,9.692239083333332,-0.34323275000000003,-4.225031708333333,0.0,0.0,0.0,0.0,0.0,0.0,0.0,0.0,0.0
1403636580.3105888,8259,1403636580,303555500,imu4,0.0,0.0,0.0,1.0,99999.9,0.0,0.0,0.0,99999.9,0.0,0.0,0.0,99999.9,-0.02024581932313422,-0.1556833692778942,-0.04258603374866164,0.0,0.0,0.0,0.0,0.0,0.0,0.0,0.0,0.0,9.635033625,-0.45764366666666667,-4.175998458333333,0.0,0.0,0.0,0.0,0.0,0.0,0.0,0.0,0.0
1403636580.3593795,8260,1403636580,308555500,imu4,0.0,0.0,0.0,1.0,99999.9,0.0,0.0,0.0,99999.9,0.0,0.0,0.0,99999.9,-0.009075712110370514,-0.15987215948268058,-0.032812189937493394,0.0,0.0,0.0,0.0,0.0,0.0,0.0,0.0,0.0,9.545139333333333,-0.5148491249999999,-4.069759749999999,0.0,0.0,0.0,0.0,0.0,0.0,0.0,0.0,0.0
1403636580.3594174,8261,1403636580,313555500,imu4,0.0,0.0,0.0,1.0,99999.9,0.0,0.0,0.0,99999.9,0.0,0.0,0.0,99999.9,0.0006981317007977319,-0.1759291886010284,-0.016057029118347832,0.0,0.0,0.0,0.0,0.0,0.0,0.0,0.0,0.0,9.389867375,-0.5802267916666666,-3.979865458333333,0.0,0.0,0.0,0.0,0.0,0.0,0.0,0.0,0.0
1403636580.3594527,8262,1403636580,318555500,imu4,0.0,0.0,0.0,1.0,99999.9,0.0,0.0,0.0,99999.9,0.0,0.0,0.0,99999.9,0.013264502315156905,-0.18570303241219666,0.010471975511965976,0.0,0.0,0.0,0.0,0.0,0.0,0.0,0.0,0.0,9.332661916666666,-0.6701210833333332,-3.906315583333333,0.0,0.0,0.0,0.0,0.0,0.0,0.0,0.0,0.0
1403636580.3594832,8263,1403636580,323555500,imu4,0.0,0.0,0.0,1.0,99999.9,0.0,0.0,0.0,99999.9,0.0,0.0,0.0,99999.9,0.030019663134302467,-0.1954768762233649,0.028623399732707,0.0,0.0,0.0,0.0,0.0,0.0,0.0,0.0,0.0,9.340834124999999,-0.7191543333333333,-3.87362675,0.0,0.0,0.0,0.0,0.0,0.0,0.0,0.0,0.0
1403636580.359534,8264,1403636580,328555500,imu4,0.0,0.0,0.0,1.0,99999.9,0.0,0.0,0.0,99999.9,0.0,0.0,0.0,99999.9,0.04258603374866164,-0.19687313962496036,0.04468042885105484,0.0,0.0,0.0,0.0,0.0,0.0,0.0,0.0,0.0,9.373522958333332,-0.7518431666666666,-3.8491101249999997,0.0,0.0,0.0,0.0,0.0,0.0,0.0,0.0,0.0
1403636580.3595698,8265,1403636580,333555500,imu4,0.0,0.0,0.0,1.0,99999.9,0.0,0.0,0.0,99999.9,0.0,0.0,0.0,99999.9,0.05026548245743669,-0.19687313962496036,0.06073745796940267,0.0,0.0,0.0,0.0,0.0,0.0,0.0,0.0,0.0,9.569655958333334,-0.6537766666666667,-3.906315583333333,0.0,0.0,0.0,0.0,0.0,0.0,0.0,0.0,0.0
1403636580.3596056,8266,1403636580,338555500,imu4,0.0,0.0,0.0,1.0,99999.9,0.0,0.0,0.0,99999.9,0.0,0.0,0.0,99999.9,0.05794493116621174,-0.20036379812894903,0.06911503837897544,0.0,0.0,0.0,0.0,0.0,0.0,0.0,0.0,0.0,9.684066875,-0.48216029166666663,-3.9880376666666666,0.0,0.0,0.0,0.0,0.0,0.0,0.0,0.0,0.0
1403636580.3596396,8267,1403636580,343555500,imu4,0.0,0.0,0.0,1.0,99999.9,0.0,0.0,0.0,99999.9,0.0,0.0,0.0,99999.9,0.05864306286700947,-0.19757127132575814,0.07958701389094143,0.0,0.0,0.0,0.0,0.0,0.0,0.0,0.0,0.0,9.684066875,-0.34323275000000003,-4.020726499999999,0.0,0.0,0.0,0.0,0.0,0.0,0.0,0.0,0.0
1403636580.3597405,8268,1403636580,348555500,imu4,0.0,0.0,0.0,1.0,99999.9,0.0,0.0,0.0,99999.9,0.0,0.0,0.0,99999.9,0.0439822971502571,-0.20245819323134223,0.09145525280450287,0.0,0.0,0.0,0.0,0.0,0.0,0.0,0.0,0.0,9.684066875,-0.29419949999999995,-4.0125542916666666,0.0,0.0,0.0,0.0,0.0,0.0,0.0,0.0,0.0
1403636580.3597753,8269,1403636580,353555500,imu4,0.0,0.0,0.0,1.0,99999.9,0.0,0.0,0.0,99999.9,0.0,0.0,0.0,99999.9,0.03420845333908886,-0.210835773640915,0.09704030641088471,0.0,0.0,0.0,0.0,0.0,0.0,0.0,0.0,0.0,9.684066875,-0.23699404166666665,-4.020726499999999,0.0,0.0,0.0,0.0,0.0,0.0,0.0,0.0,0.0
1403636580.4093182,8270,1403636580,358555500,imu4,0.0,0.0,0.0,1.0,99999.9,0.0,0.0,0.0,99999.9,0.0,0.0,0.0,99999.9,0.02234021442552742,-0.22759093446006054,0.09564404300928926,0.0,0.0,0.0,0.0,0.0,0.0,0.0,0.0,0.0,9.716755708333332,-0.17978858333333333,-4.028898708333333,0.0,0.0,0.0,0.0,0.0,0.0,0.0,0.0,0.0
1403636580.40946,8271,1403636580,363555500,imu4,0.0,0.0,0.0,1.0,99999.9,0.0,0.0,0.0,99999.9,0.0,0.0,0.0,99999.9,0.010471975511965976,-0.23527038316883564,0.08936085770210968,0.0,0.0,0.0,0.0,0.0,0.0,0.0,0.0,0.0,9.790305583333332,-0.20430520833333332,-4.045243125,0.0,0.0,0.0,0.0,0.0,0.0,0.0,0.0,0.0
1403636580.4094963,8272,1403636580,368555500,imu4,0.0,0.0,0.0,1.0,99999.9,0.0,0.0,0.0,99999.9,0.0,0.0,0.0,99999.9,0.0006981317007977319,-0.24504422698000386,0.0747000919853573,0.0,0.0,0.0,0.0,0.0,0.0,0.0,0.0,0.0,9.896544291666666,-0.20430520833333332,-4.110620791666666,0.0,0.0,0.0,0.0,0.0,0.0,0.0,0.0,0.0
1403636580.4095843,8273,1403636580,373555500,imu4,0.0,0.0,0.0,1.0,99999.9,0.0,0.0,0.0,99999.9,0.0,0.0,0.0,99999.9,-0.010471975511965976,-0.25761059759436306,0.05794493116621174,0.0,0.0,0.0,0.0,0.0,0.0,0.0,0.0,0.0,10.019127416666667,-0.17161637500000002,-4.1024485833333335,0.0,0.0,0.0,0.0,0.0,0.0,0.0,0.0,0.0
1403636580.4096382,8274,1403636580,378555500,imu4,0.0,0.0,0.0,1.0,99999.9,0.0,0.0,0.0,99999.9,0.0,0.0,0.0,99999.9,-0.016755160819145562,-0.2645919146023404,0.03420845333908886,0.0,0.0,0.0,0.0,0.0,0.0,0.0,0.0,0.0,10.068160666666666,-0.220649625,-4.126965208333333,0.0,0.0,0.0,0.0,0.0,0.0,0.0,0.0,0.0
1403636580.4096956,8275,1403636580,383555500,imu4,0.0,0.0,0.0,1.0,99999.9,0.0,0.0,0.0,99999.9,0.0,0.0,0.0,99999.9,-0.023038346126325153,-0.2708750999095199,0.019547687622336492,0.0,0.0,0.0,0.0,0.0,0.0,0.0,0.0,0.0,10.084505083333333,-0.22882183333333334,-4.110620791666666,0.0,0.0,0.0,0.0,0.0,0.0,0.0,0.0,0.0
1403636580.4097311,8276,1403636580,388555500,imu4,0.0,0.0,0.0,1.0,99999.9,0.0,0.0,0.0,99999.9,0.0,0.0,0.0,99999.9,-0.025132741228718346,-0.2827433388230814,0.006283185307179587,0.0,0.0,0.0,0.0,0.0,0.0,0.0,0.0,0.0,10.068160666666666,-0.24516625,-4.045243125,0.0,0.0,0.0,0.0,0.0,0.0,0.0,0.0,0.0
1403636580.4097667,8277,1403636580,393555500,imu4,0.0,0.0,0.0,1.0,99999.9,0.0,0.0,0.0,99999.9,0.0,0.0,0.0,99999.9,-0.023736477827122883,-0.29251718263424964,0.0006981317007977319,0.0,0.0,0.0,0.0,0.0,0.0,0.0,0.0,0.0,10.027299625,-0.3350605416666666,-4.0615875416666665,0.0,0.0,0.0,0.0,0.0,0.0,0.0,0.0,0.0
1403636580.4098659,8278,1403636580,398555500,imu4,0.0,0.0,0.0,1.0,99999.9,0.0,0.0,0.0,99999.9,0.0,0.0,0.0,99999.9,-0.016057029118347832,-0.3029891581462156,0.0006981317007977319,0.0,0.0,0.0,0.0,0.0,0.0,0.0,0.0,0.0,10.084505083333333,-0.43312704166666666,-4.135137416666667,0.0,0.0,0.0,0.0,0.0,0.0,0.0,0.0,0.0
1403636580.4098997,8279,1403636580,403555500,imu4,0.0,0.0,0.0,1.0,99999.9,0.0,0.0,0.0,99999.9,0.0,0.0,0.0,99999.9,-0.008377580409572781,-0.3134611336581816,0.01117010721276371,0.0,0.0,0.0,0.0,0.0,0.0,0.0,0.0,0.0,10.166227166666665,-0.4494714583333333,-4.159654041666666,0.0,0.0,0.0,0.0,0.0,0.0,0.0,0.0,0.0
1403636580.4593744,8280,1403636580,408555500,imu4,0.0,0.0,0.0,1.0,99999.9,0.0,0.0,0.0,99999.9,0.0,0.0,0.0,99999.9,0.004886921905584123,-0.31555552876057474,0.01815142422074103,0.0,0.0,0.0,0.0,0.0,0.0,0.0,0.0,0.0,10.141710541666667,-0.5148491249999999,-4.233203916666667,0.0,0.0,0.0,0.0,0.0,0.0,0.0,0.0,0.0
1403636580.4594643,8281,1403636580,413555500,imu4,0.0,0.0,0.0,1.0,99999.9,0.0,0.0,0.0,99999.9,0.0,0.0,0.0,99999.9,0.008377580409572781,-0.31974431896536115,0.02722713633111154,0.0,0.0,0.0,0.0,0.0,0.0,0.0,0.0,0.0,10.223432625,-0.53936575,-4.314926,0.0,0.0,0.0,0.0,0.0,0.0,0.0,0.0,0.0
1403636580.4595554,8282,1403636580,418555500,imu4,0.0,0.0,0.0,1.0,99999.9,0.0,0.0,0.0,99999.9,0.0,0.0,0.0,99999.9,0.019547687622336492,-0.3225368457685521,0.04049163864626844,0.0,0.0,0.0,0.0,0.0,0.0,0.0,0.0,0.0,10.313326916666666,-0.4985047083333333,-4.4129925,0.0,0.0,0.0,0.0,0.0,0.0,0.0,0.0,0.0
1403636580.4596474,8283,1403636580,423555500,imu4,0.0,0.0,0.0,1.0,99999.9,0.0,0.0,0.0,99999.9,0.0,0.0,0.0,99999.9,0.020943951023931952,-0.3225368457685521,0.04537856055185257,0.0,0.0,0.0,0.0,0.0,0.0,0.0,0.0,0.0,10.305154708333331,-0.5883989999999999,-4.4211647083333325,0.0,0.0,0.0,0.0,0.0,0.0,0.0,0.0,0.0
1403636580.4596844,8284,1403636580,428555500,imu4,0.0,0.0,0.0,1.0,99999.9,0.0,0.0,0.0,99999.9,0.0,0.0,0.0,99999.9,0.025132741228718346,-0.3267256359733385,0.04956735075663895,0.0,0.0,0.0,0.0,0.0,0.0,0.0,0.0,0.0,10.452254458333334,-0.612915625,-4.494714583333333,0.0,0.0,0.0,0.0,0.0,0.0,0.0,0.0,0.0
1403636580.459742,8285,1403636580,433555500,imu4,0.0,0.0,0.0,1.0,99999.9,0.0,0.0,0.0,99999.9,0.0,0.0,0.0,99999.9,0.023736477827122883,-0.3309144261781249,0.06073745796940267,0.0,0.0,0.0,0.0,0.0,0.0,0.0,0.0,0.0,10.484943291666665,-0.5148491249999999,-4.4701979583333324,0.0,0.0,0.0,0.0,0.0,0.0,0.0,0.0,0.0
1403636580.4598312,8286,1403636580,438555500,imu4,0.0,0.0,0.0,1.0,99999.9,0.0,0.0,0.0,99999.9,0.0,0.0,0.0,99999.9,0.023736477827122883,-0.3309144261781249,0.07190756518216637,0.0,0.0,0.0,0.0,0.0,0.0,0.0,0.0,0.0,10.550320958333334,-0.5311935416666667,-4.519231208333333,0.0,0.0,0.0,0.0,0.0,0.0,0.0,0.0,0.0
1403636580.459867,8287,1403636580,443555500,imu4,0.0,0.0,0.0,1.0,99999.9,0.0,0.0,0.0,99999.9,0.0,0.0,0.0,99999.9,0.020943951023931952,-0.33300882128051806,0.08098327729253688,0.0,0.0,0.0,0.0,0.0,0.0,0.0,0.0,0.0,10.672904083333334,-0.44129925,-4.5519200416666665,0.0,0.0,0.0,0.0,0.0,0.0,0.0,0.0,0.0
1403636580.4599247,8288,1403636580,448555500,imu4,0.0,0.0,0.0,1.0,99999.9,0.0,0.0,0.0,99999.9,0.0,0.0,0.0,99999.9,0.013264502315156905,-0.3364994797845067,0.0942477796076938,0.0,0.0,0.0,0.0,0.0,0.0,0.0,0.0,0.0,10.836348249999999,-0.3350605416666666,-4.511059,0.0,0.0,0.0,0.0,0.0,0.0,0.0,0.0,0.0
1403636580.4599602,8289,1403636580,453555500,imu4,0.0,0.0,0.0,1.0,99999.9,0.0,0.0,0.0,99999.9,0.0,0.0,0.0,99999.9,0.006981317007977318,-0.3344050846821135,0.10053096491487339,0.0,0.0,0.0,0.0,0.0,0.0,0.0,0.0,0.0,10.893553708333332,-0.32688833333333334,-4.5519200416666665,0.0,0.0,0.0,0.0,0.0,0.0,0.0,0.0,0.0
1403636580.5087464,8290,1403636580,458555500,imu4,0.0,0.0,0.0,1.0,99999.9,0.0,0.0,0.0,99999.9,0.0,0.0,0.0,99999.9,-0.0027925268031909274,-0.3274237676741362,0.09773843811168245,0.0,0.0,0.0,0.0,0.0,0.0,0.0,0.0,0.0,10.999792416666665,-0.35957716666666667,-4.568264458333333,0.0,0.0,0.0,0.0,0.0,0.0,0.0,0.0,0.0
1403636580.508796,8291,1403636580,463555500,imu4,0.0,0.0,0.0,1.0,99999.9,0.0,0.0,0.0,99999.9,0.0,0.0,0.0,99999.9,-0.009075712110370514,-0.3225368457685521,0.09215338450530061,0.0,0.0,0.0,0.0,0.0,0.0,0.0,0.0,0.0,11.073342291666666,-0.367749375,-4.617297708333333,0.0,0.0,0.0,0.0,0.0,0.0,0.0,0.0,0.0
1403636580.5088303,8292,1403636580,468555500,imu4,0.0,0.0,0.0,1.0,99999.9,0.0,0.0,0.0,99999.9,0.0,0.0,0.0,99999.9,-0.013264502315156905,-0.3204424506661589,0.08447393579652555,0.0,0.0,0.0,0.0,0.0,0.0,0.0,0.0,0.0,11.03248125,-0.35957716666666667,-4.584608875,0.0,0.0,0.0,0.0,0.0,0.0,0.0,0.0,0.0
1403636580.508987,8293,1403636580,473555500,imu4,0.0,0.0,0.0,1.0,99999.9,0.0,0.0,0.0,99999.9,0.0,0.0,0.0,99999.9,-0.0153588974175501,-0.3162536604613725,0.07120943348136866,0.0,0.0,0.0,0.0,0.0,0.0,0.0,0.0,0.0,11.048825666666666,-0.3840937916666667,-4.699019791666666,0.0,0.0,0.0,0.0,0.0,0.0,0.0,0.0,0.0
1403636580.5092995,8294,1403636580,478555500,imu4,0.0,0.0,0.0,1.0,99999.9,0.0,0.0,0.0,99999.9,0.0,0.0,0.0,99999.9,-0.014660765716752367,-0.3239331091701475,0.06841690667817772,0.0,0.0,0.0,0.0,0.0,0.0,0.0,0.0,0.0,11.106031125,-0.3105439166666667,-4.748053041666666,0.0,0.0,0.0,0.0,0.0,0.0,0.0,0.0,0.0
1403636580.5093338,8295,1403636580,483555500,imu4,0.0,0.0,0.0,1.0,99999.9,0.0,0.0,0.0,99999.9,0.0,0.0,0.0,99999.9,-0.012566370614359173,-0.32812189937493397,0.06213372137099814,0.0,0.0,0.0,0.0,0.0,0.0,0.0,0.0,0.0,11.179580999999999,-0.318716125,-4.8216029166666665,0.0,0.0,0.0,0.0,0.0,0.0,0.0,0.0,0.0
1403636580.509488,8296,1403636580,488555500,imu4,0.0,0.0,0.0,1.0,99999.9,0.0,0.0,0.0,99999.9,0.0,0.0,0.0,99999.9,-0.016755160819145562,-0.3274237676741362,0.05585053606381855,0.0,0.0,0.0,0.0,0.0,0.0,0.0,0.0,0.0,11.42474725,-0.3840937916666667,-4.95235825,0.0,0.0,0.0,0.0,0.0,0.0,0.0,0.0,0.0
1403636580.5096385,8297,1403636580,493555500,imu4,0.0,0.0,0.0,1.0,99999.9,0.0,0.0,0.0,99999.9,0.0,0.0,0.0,99999.9,-0.010471975511965976,-0.3323106895797203,0.05864306286700947,0.0,0.0,0.0,0.0,0.0,0.0,0.0,0.0,0.0,11.588191416666666,-0.3840937916666667,-5.017735916666667,0.0,0.0,0.0,0.0,0.0,0.0,0.0,0.0,0.0
1403636580.5098825,8298,1403636580,498555500,imu4,0.0,0.0,0.0,1.0,99999.9,0.0,0.0,0.0,99999.9,0.0,0.0,0.0,99999.9,0.0041887902047863905,-0.3295181627765294,0.06283185307179587,0.0,0.0,0.0,0.0,0.0,0.0,0.0,0.0,0.0,11.710774541666666,-0.465815875,-5.083113583333333,0.0,0.0,0.0,0.0,0.0,0.0,0.0,0.0,0.0
1403636580.509918,8299,1403636580,503555500,imu4,0.0,0.0,0.0,1.0,99999.9,0.0,0.0,0.0,99999.9,0.0,0.0,0.0,99999.9,0.016755160819145562,-0.3232349774693498,0.07609635538695278,0.0,0.0,0.0,0.0,0.0,0.0,0.0,0.0,0.0,11.898735333333333,-0.5883989999999999,-5.173007875,0.0,0.0,0.0,0.0,0.0,0.0,0.0,0.0,0.0
1403636580.5595856,8300,1403636580,508555500,imu4,0.0,0.0,0.0,1.0,99999.9,0.0,0.0,0.0,99999.9,0.0,0.0,0.0,99999.9,0.0307177948351002,-0.3113667385557884,0.09773843811168245,0.0,0.0,0.0,0.0,0.0,0.0,0.0,0.0,0.0,12.103040541666665,-0.5066769166666666,-5.279246583333333,0.0,0.0,0.0,0.0,0.0,0.0,0.0,0.0,0.0
1403636580.559623,8301,1403636580,513555500,imu4,0.0,0.0,0.0,1.0,99999.9,0.0,0.0,0.0,99999.9,0.0,0.0,0.0,99999.9,0.046076692252650306,-0.3057816849494065,0.11868238913561441,0.0,0.0,0.0,0.0,0.0,0.0,0.0,0.0,0.0,12.127557166666666,-0.4903325,-5.336452041666667,0.0,0.0,0.0,0.0,0.0,0.0,0.0,0.0,0.0
1403636580.5596611,8302,1403636580,518555500,imu4,0.0,0.0,0.0,1.0,99999.9,0.0,0.0,0.0,99999.9,0.0,0.0,0.0,99999.9,0.050963614158234416,-0.29042278753185646,0.13683381335635544,0.0,0.0,0.0,0.0,0.0,0.0,0.0,0.0,0.0,12.119384958333333,-0.48216029166666663,-5.410001916666666,0.0,0.0,0.0,0.0,0.0,0.0,0.0,0.0,0.0
1403636580.5596912,8303,1403636580,523555500,imu4,0.0,0.0,0.0,1.0,99999.9,0.0,0.0,0.0,99999.9,0.0,0.0,0.0,99999.9,0.056548667764616284,-0.2792526803190927,0.14800392056911915,0.0,0.0,0.0,0.0,0.0,0.0,0.0,0.0,0.0,12.176590416666667,-0.4004382083333333,-5.459035166666666,0.0,0.0,0.0,0.0,0.0,0.0,0.0,0.0,0.0
1403636580.5597584,8304,1403636580,528555500,imu4,0.0,0.0,0.0,1.0,99999.9,0.0,0.0,0.0,99999.9,0.0,0.0,0.0,99999.9,0.05166174585903216,-0.2694788365079245,0.15009831567151233,0.0,0.0,0.0,0.0,0.0,0.0,0.0,0.0,0.0,12.119384958333333,-0.2778550833333333,-5.532585041666667,0.0,0.0,0.0,0.0,0.0,0.0,0.0,0.0,0.0
1403636580.5597935,8305,1403636580,533555500,imu4,0.0,0.0,0.0,1.0,99999.9,0.0,0.0,0.0,99999.9,0.0,0.0,0.0,99999.9,0.047472955654245766,-0.25970499269675623,0.14521139376592823,0.0,0.0,0.0,0.0,0.0,0.0,0.0,0.0,0.0,12.078523916666667,-0.29419949999999995,-5.565273875,0.0,0.0,0.0,0.0,0.0,0.0,0.0,0.0,0.0
1403636580.5598571,8306,1403636580,538555500,imu4,0.0,0.0,0.0,1.0,99999.9,0.0,0.0,0.0,99999.9,0.0,0.0,0.0,99999.9,0.04049163864626844,-0.24923301718479024,0.13124875974997358,0.0,0.0,0.0,0.0,0.0,0.0,0.0,0.0,0.0,12.094868333333332,-0.2778550833333333,-5.622479333333334,0.0,0.0,0.0,0.0,0.0,0.0,0.0,0.0,0.0
1403636580.5599034,8307,1403636580,543555500,imu4,0.0,0.0,0.0,1.0,99999.9,0.0,0.0,0.0,99999.9,0.0,0.0,0.0,99999.9,0.03490658503988659,-0.23457225146803787,0.1228711793404008,0.0,0.0,0.0,0.0,0.0,0.0,0.0,0.0,0.0,11.996801833333333,-0.3105439166666667,-5.638823749999999,0.0,0.0,0.0,0.0,0.0,0.0,0.0,0.0,0.0
1403636580.5599391,8308,1403636580,548555500,imu4,0.0,0.0,0.0,1.0,99999.9,0.0,0.0,0.0,99999.9,0.0,0.0,0.0,99999.9,0.029321531433504733,-0.21572269554649914,0.1117010721276371,0.0,0.0,0.0,0.0,0.0,0.0,0.0,0.0,0.0,12.01314625,-0.367749375,-5.614307125,0.0,0.0,0.0,0.0,0.0,0.0,0.0,0.0,0.0
1403636580.559973,8309,1403636580,553555500,imu4,0.0,0.0,0.0,1.0,99999.9,0.0,0.0,0.0,99999.9,0.0,0.0,0.0,99999.9,0.023736477827122883,-0.1996656664281513,0.09983283321407566,0.0,0.0,0.0,0.0,0.0,0.0,0.0,0.0,0.0,11.988629624999998,-0.4004382083333333,-5.679684791666666,0.0,0.0,0.0,0.0,0.0,0.0,0.0,0.0,0.0
1403636580.6085541,8310,1403636580,558555500,imu4,0.0,0.0,0.0,1.0,99999.9,0.0,0.0,0.0,99999.9,0.0,0.0,0.0,99999.9,0.028623399732707,-0.18430676901060122,0.09564404300928926,0.0,0.0,0.0,0.0,0.0,0.0,0.0,0.0,0.0,11.955940791666666,-0.416782625,-5.622479333333334,0.0,0.0,0.0,0.0,0.0,0.0,0.0,0.0,0.0
1403636580.6086383,8311,1403636580,563555500,imu4,0.0,0.0,0.0,1.0,99999.9,0.0,0.0,0.0,99999.9,0.0,0.0,0.0,99999.9,0.032812189937493394,-0.16615534478986016,0.09145525280450287,0.0,0.0,0.0,0.0,0.0,0.0,0.0,0.0,0.0,12.004974041666665,-0.4739880833333333,-5.597962708333332,0.0,0.0,0.0,0.0,0.0,0.0,0.0,0.0,0.0
1403636580.6087308,8312,1403636580,568555500,imu4,0.0,0.0,0.0,1.0,99999.9,0.0,0.0,0.0,99999.9,0.0,0.0,0.0,99999.9,0.033510321638291124,-0.1466076571675237,0.08936085770210968,0.0,0.0,0.0,0.0,0.0,0.0,0.0,0.0,0.0,12.086696124999998,-0.563882375,-5.622479333333334,0.0,0.0,0.0,0.0,0.0,0.0,0.0,0.0,0.0
1403636580.6088896,8313,1403636580,573555500,imu4,0.0,0.0,0.0,1.0,99999.9,0.0,0.0,0.0,99999.9,0.0,0.0,0.0,99999.9,0.04677482395344803,-0.1361356816555577,0.09075712110370514,0.0,0.0,0.0,0.0,0.0,0.0,0.0,0.0,0.0,12.168418208333332,-0.563882375,-5.6306515416666665,0.0,0.0,0.0,0.0,0.0,0.0,0.0,0.0,0.0
1403636580.609047,8314,1403636580,578555500,imu4,0.0,0.0,0.0,1.0,99999.9,0.0,0.0,0.0,99999.9,0.0,0.0,0.0,99999.9,0.057246799465414,-0.12007865253720987,0.09704030641088471,0.0,0.0,0.0,0.0,0.0,0.0,0.0,0.0,0.0,12.241968083333333,-0.6047434166666666,-5.597962708333332,0.0,0.0,0.0,0.0,0.0,0.0,0.0,0.0,0.0
1403636580.6091356,8315,1403636580,583555500,imu4,0.0,0.0,0.0,1.0,99999.9,0.0,0.0,0.0,99999.9,0.0,0.0,0.0,99999.9,0.06492624817418906,-0.10332349171806432,0.10262536001726656,0.0,0.0,0.0,0.0,0.0,0.0,0.0,0.0,0.0,12.372723416666666,-0.5802267916666666,-5.597962708333332,0.0,0.0,0.0,0.0,0.0,0.0,0.0,0.0,0.0
1403636580.6092963,8316,1403636580,588555500,imu4,0.0,0.0,0.0,1.0,99999.9,0.0,0.0,0.0,99999.9,0.0,0.0,0.0,99999.9,0.06702064327658225,-0.08656833089891874,0.10890854532444616,0.0,0.0,0.0,0.0,0.0,0.0,0.0,0.0,0.0,12.397240041666667,-0.48216029166666663,-5.6306515416666665,0.0,0.0,0.0,0.0,0.0,0.0,0.0,0.0,0.0
1403636580.609459,8317,1403636580,593555500,imu4,0.0,0.0,0.0,1.0,99999.9,0.0,0.0,0.0,99999.9,0.0,0.0,0.0,99999.9,0.06632251157578452,-0.06283185307179587,0.11309733552923257,0.0,0.0,0.0,0.0,0.0,0.0,0.0,0.0,0.0,12.348206791666668,-0.5148491249999999,-5.614307125,0.0,0.0,0.0,0.0,0.0,0.0,0.0,0.0,0.0
1403636580.6096172,8318,1403636580,598555500,imu4,0.0,0.0,0.0,1.0,99999.9,0.0,0.0,0.0,99999.9,0.0,0.0,0.0,99999.9,0.06632251157578452,-0.04328416544945937,0.11309733552923257,0.0,0.0,0.0,0.0,0.0,0.0,0.0,0.0,0.0,12.307345749999998,-0.563882375,-5.622479333333334,0.0,0.0,0.0,0.0,0.0,0.0,0.0,0.0,0.0
1403636580.6097038,8319,1403636580,603555500,imu4,0.0,0.0,0.0,1.0,99999.9,0.0,0.0,0.0,99999.9,0.0,0.0,0.0,99999.9,0.06422811647339133,-0.029321531433504733,0.11588986233242347,0.0,0.0,0.0,0.0,0.0,0.0,0.0,0.0,0.0,12.20927925,-0.4903325,-5.6306515416666665,0.0,0.0,0.0,0.0,0.0,0.0,0.0,0.0,0.0
1403636580.658636,8320,1403636580,608555500,imu4,0.0,0.0,0.0,1.0,99999.9,0.0,0.0,0.0,99999.9,0.0,0.0,0.0,99999.9,0.05585053606381855,-0.006981317007977318,0.11030480872604163,0.0,0.0,0.0,0.0,0.0,0.0,0.0,0.0,0.0,12.070351708333332,-0.465815875,-5.622479333333334,0.0,0.0,0.0,0.0,0.0,0.0,0.0,0.0,0.0
1403636580.6588094,8321,1403636580,613555500,imu4,0.0,0.0,0.0,1.0,99999.9,0.0,0.0,0.0,99999.9,0.0,0.0,0.0,99999.9,0.04468042885105484,0.006981317007977318,0.1054178868204575,0.0,0.0,0.0,0.0,0.0,0.0,0.0,0.0,0.0,11.923251958333333,-0.465815875,-5.606134916666666,0.0,0.0,0.0,0.0,0.0,0.0,0.0,0.0,0.0
1403636580.658896,8322,1403636580,618555500,imu4,0.0,0.0,0.0,1.0,99999.9,0.0,0.0,0.0,99999.9,0.0,0.0,0.0,99999.9,0.03630284844148206,0.021642082724729686,0.09773843811168245,0.0,0.0,0.0,0.0,0.0,0.0,0.0,0.0,0.0,11.825185458333332,-0.4004382083333333,-5.557101666666666,0.0,0.0,0.0,0.0,0.0,0.0,0.0,0.0,0.0
1403636580.6589878,8323,1403636580,623555500,imu4,0.0,0.0,0.0,1.0,99999.9,0.0,0.0,0.0,99999.9,0.0,0.0,0.0,99999.9,0.023736477827122883,0.03630284844148206,0.09075712110370514,0.0,0.0,0.0,0.0,0.0,0.0,0.0,0.0,0.0,11.645396875,-0.43312704166666666,-5.508068416666666,0.0,0.0,0.0,0.0,0.0,0.0,0.0,0.0,0.0
1403636580.659227,8324,1403636580,628555500,imu4,0.0,0.0,0.0,1.0,99999.9,0.0,0.0,0.0,99999.9,0.0,0.0,0.0,99999.9,0.011868238913561441,0.04817108735504349,0.08098327729253688,0.0,0.0,0.0,0.0,0.0,0.0,0.0,0.0,0.0,11.555502583333332,-0.5557101666666666,-5.450862958333333,0.0,0.0,0.0,0.0,0.0,0.0,0.0,0.0,0.0
1403636580.6593912,8325,1403636580,633555500,imu4,0.0,0.0,0.0,1.0,99999.9,0.0,0.0,0.0,99999.9,0.0,0.0,0.0,99999.9,0.0006981317007977319,0.0635299847725936,0.07260569688296412,0.0,0.0,0.0,0.0,0.0,0.0,0.0,0.0,0.0,11.620880249999999,-0.5557101666666666,-5.385485291666667,0.0,0.0,0.0,0.0,0.0,0.0,0.0,0.0,0.0
1403636580.6595495,8326,1403636580,638555500,imu4,0.0,0.0,0.0,1.0,99999.9,0.0,0.0,0.0,99999.9,0.0,0.0,0.0,99999.9,-0.0041887902047863905,0.07400196028455958,0.06841690667817772,0.0,0.0,0.0,0.0,0.0,0.0,0.0,0.0,0.0,11.514641541666665,-0.6047434166666666,-5.3201076249999995,0.0,0.0,0.0,0.0,0.0,0.0,0.0,0.0,0.0
1403636580.6596367,8327,1403636580,643555500,imu4,0.0,0.0,0.0,1.0,99999.9,0.0,0.0,0.0,99999.9,0.0,0.0,0.0,99999.9,-0.008377580409572781,0.08168140899333462,0.06632251157578452,0.0,0.0,0.0,0.0,0.0,0.0,0.0,0.0,0.0,11.547330375,-0.6864655000000001,-5.262902166666666,0.0,0.0,0.0,0.0,0.0,0.0,0.0,0.0,0.0
1403636580.659793,8328,1403636580,648555500,imu4,0.0,0.0,0.0,1.0,99999.9,0.0,0.0,0.0,99999.9,0.0,0.0,0.0,99999.9,-0.013264502315156905,0.09773843811168245,0.06492624817418906,0.0,0.0,0.0,0.0,0.0,0.0,0.0,0.0,0.0,11.653569083333332,-0.5965712083333333,-5.2710743749999995,0.0,0.0,0.0,0.0,0.0,0.0,0.0,0.0,0.0
1403636580.6599474,8329,1403636580,653555500,imu4,0.0,0.0,0.0,1.0,99999.9,0.0,0.0,0.0,99999.9,0.0,0.0,0.0,99999.9,-0.013962634015954637,0.10611601852125524,0.0635299847725936,0.0,0.0,0.0,0.0,0.0,0.0,0.0,0.0,0.0,11.629052458333332,-0.563882375,-5.1975245,0.0,0.0,0.0,0.0,0.0,0.0,0.0,0.0,0.0
1403636580.7095392,8330,1403636580,658555500,imu4,0.0,0.0,0.0,1.0,99999.9,0.0,0.0,0.0,99999.9,0.0,0.0,0.0,99999.9,-0.017453292519943295,0.11798425743481668,0.05864306286700947,0.0,0.0,0.0,0.0,0.0,0.0,0.0,0.0,0.0,11.629052458333332,-0.4985047083333333,-5.107630208333333,0.0,0.0,0.0,0.0,0.0,0.0,0.0,0.0,0.0
1403636580.709578,8331,1403636580,663555500,imu4,0.0,0.0,0.0,1.0,99999.9,0.0,0.0,0.0,99999.9,0.0,0.0,0.0,99999.9,-0.02234021442552742,0.12636183784438945,0.05585053606381855,0.0,0.0,0.0,0.0,0.0,0.0,0.0,0.0,0.0,11.686257916666666,-0.4494714583333333,-5.115802416666666,0.0,0.0,0.0,0.0,0.0,0.0,0.0,0.0,0.0
1403636580.7096162,8332,1403636580,668555500,imu4,0.0,0.0,0.0,1.0,99999.9,0.0,0.0,0.0,99999.9,0.0,0.0,0.0,99999.9,-0.028623399732707,0.13683381335635544,0.04677482395344803,0.0,0.0,0.0,0.0,0.0,0.0,0.0,0.0,0.0,11.645396875,-0.34323275000000003,-5.083113583333333,0.0,0.0,0.0,0.0,0.0,0.0,0.0,0.0,0.0
1403636580.709647,8333,1403636580,673555500,imu4,0.0,0.0,0.0,1.0,99999.9,0.0,0.0,0.0,99999.9,0.0,0.0,0.0,99999.9,-0.03420845333908886,0.14800392056911915,0.03490658503988659,0.0,0.0,0.0,0.0,0.0,0.0,0.0,0.0,0.0,11.539158166666667,-0.318716125,-5.074941374999999,0.0,0.0,0.0,0.0,0.0,0.0,0.0,0.0,0.0
1403636580.709698,8334,1403636580,678555500,imu4,0.0,0.0,0.0,1.0,99999.9,0.0,0.0,0.0,99999.9,0.0,0.0,0.0,99999.9,-0.04328416544945937,0.16196655458507375,0.01884955592153876,0.0,0.0,0.0,0.0,0.0,0.0,0.0,0.0,0.0,11.481952708333333,-0.26151066666666667,-5.099458,0.0,0.0,0.0,0.0,0.0,0.0,0.0,0.0,0.0
1403636580.7097473,8335,1403636580,683555500,imu4,0.0,0.0,0.0,1.0,99999.9,0.0,0.0,0.0,99999.9,0.0,0.0,0.0,99999.9,-0.05585053606381855,0.1710422666954443,0.006981317007977318,0.0,0.0,0.0,0.0,0.0,0.0,0.0,0.0,0.0,11.343025166666667,-0.11441091666666667,-5.099458,0.0,0.0,0.0,0.0,0.0,0.0,0.0,0.0,0.0
1403636580.7098289,8336,1403636580,688555500,imu4,0.0,0.0,0.0,1.0,99999.9,0.0,0.0,0.0,99999.9,0.0,0.0,0.0,99999.9,-0.06632251157578452,0.18151424220741028,-0.0020943951023931952,0.0,0.0,0.0,0.0,0.0,0.0,0.0,0.0,0.0,11.204097625,-0.08989429166666667,-5.0912857916666665,0.0,0.0,0.0,0.0,0.0,0.0,0.0,0.0,0.0
1403636580.7098646,8337,1403636580,693555500,imu4,0.0,0.0,0.0,1.0,99999.9,0.0,0.0,0.0,99999.9,0.0,0.0,0.0,99999.9,-0.0767944870877505,0.19338248112097173,-0.010471975511965976,0.0,0.0,0.0,0.0,0.0,0.0,0.0,0.0,0.0,11.048825666666666,-0.122583125,-5.074941374999999,0.0,0.0,0.0,0.0,0.0,0.0,0.0,0.0,0.0
1403636580.7098994,8338,1403636580,698555500,imu4,0.0,0.0,0.0,1.0,99999.9,0.0,0.0,0.0,99999.9,0.0,0.0,0.0,99999.9,-0.08028514559173915,0.1954768762233649,-0.01815142422074103,0.0,0.0,0.0,0.0,0.0,0.0,0.0,0.0,0.0,10.844520458333331,-0.17161637500000002,-4.993219291666667,0.0,0.0,0.0,0.0,0.0,0.0,0.0,0.0,0.0
1403636580.7099335,8339,1403636580,703555500,imu4,0.0,0.0,0.0,1.0,99999.9,0.0,0.0,0.0,99999.9,0.0,0.0,0.0,99999.9,-0.08307767239493008,0.2059488517353309,-0.027925268031909273,0.0,0.0,0.0,0.0,0.0,0.0,0.0,0.0,0.0,10.738281749999999,-0.29419949999999995,-5.0013914999999995,0.0,0.0,0.0,0.0,0.0,0.0,0.0,0.0,0.0
1403636580.7595336,8340,1403636580,708555500,imu4,0.0,0.0,0.0,1.0,99999.9,0.0,0.0,0.0,99999.9,0.0,0.0,0.0,99999.9,-0.08656833089891874,0.20874137853852182,-0.039793506945470715,0.0,0.0,0.0,0.0,0.0,0.0,0.0,0.0,0.0,10.803659416666665,-0.35957716666666667,-4.985047083333333,0.0,0.0,0.0,0.0,0.0,0.0,0.0,0.0,0.0
1403636580.7596495,8341,1403636580,713555500,imu4,0.0,0.0,0.0,1.0,99999.9,0.0,0.0,0.0,99999.9,0.0,0.0,0.0,99999.9,-0.08447393579652555,0.21362830044410594,-0.041189770347066175,0.0,0.0,0.0,0.0,0.0,0.0,0.0,0.0,0.0,10.754626166666666,-0.34323275000000003,-4.9114972083333335,0.0,0.0,0.0,0.0,0.0,0.0,0.0,0.0,0.0
1403636580.75974,8342,1403636580,718555500,imu4,0.0,0.0,0.0,1.0,99999.9,0.0,0.0,0.0,99999.9,0.0,0.0,0.0,99999.9,-0.08517206749732328,0.22479840765686968,-0.0439822971502571,0.0,0.0,0.0,0.0,0.0,0.0,0.0,0.0,0.0,10.721937333333331,-0.318716125,-4.788914083333333,0.0,0.0,0.0,0.0,0.0,0.0,0.0,0.0,0.0
1403636580.759777,8343,1403636580,723555500,imu4,0.0,0.0,0.0,1.0,99999.9,0.0,0.0,0.0,99999.9,0.0,0.0,0.0,99999.9,-0.08377580409572781,0.2282890661608583,-0.04956735075663895,0.0,0.0,0.0,0.0,0.0,0.0,0.0,0.0,0.0,10.762798375,-0.32688833333333334,-4.75622525,0.0,0.0,0.0,0.0,0.0,0.0,0.0,0.0,0.0
1403636580.7598386,8344,1403636580,728555500,imu4,0.0,0.0,0.0,1.0,99999.9,0.0,0.0,0.0,99999.9,0.0,0.0,0.0,99999.9,-0.08656833089891874,0.23177972466484695,-0.04956735075663895,0.0,0.0,0.0,0.0,0.0,0.0,0.0,0.0,0.0,10.885381500000001,-0.24516625,-4.715364208333333,0.0,0.0,0.0,0.0,0.0,0.0,0.0,0.0,0.0
1403636580.7598743,8345,1403636580,733555500,imu4,0.0,0.0,0.0,1.0,99999.9,0.0,0.0,0.0,99999.9,0.0,0.0,0.0,99999.9,-0.09145525280450287,0.23457225146803787,-0.046076692252650306,0.0,0.0,0.0,0.0,0.0,0.0,0.0,0.0,0.0,10.893553708333332,-0.17978858333333333,-4.641814333333333,0.0,0.0,0.0,0.0,0.0,0.0,0.0,0.0,0.0
1403636580.759909,8346,1403636580,738555500,imu4,0.0,0.0,0.0,1.0,99999.9,0.0,0.0,0.0,99999.9,0.0,0.0,0.0,99999.9,-0.09634217471008698,0.23596851486963336,-0.03839724354387525,0.0,0.0,0.0,0.0,0.0,0.0,0.0,0.0,0.0,10.958931374999999,-0.16344416666666667,-4.625469916666667,0.0,0.0,0.0,0.0,0.0,0.0,0.0,0.0,0.0
1403636580.7599428,8347,1403636580,743555500,imu4,0.0,0.0,0.0,1.0,99999.9,0.0,0.0,0.0,99999.9,0.0,0.0,0.0,99999.9,-0.10611601852125524,0.23596851486963336,-0.032114058236695664,0.0,0.0,0.0,0.0,0.0,0.0,0.0,0.0,0.0,11.016136833333332,-0.122583125,-4.584608875,0.0,0.0,0.0,0.0,0.0,0.0,0.0,0.0,0.0
1403636580.7599776,8348,1403636580,748555500,imu4,0.0,0.0,0.0,1.0,99999.9,0.0,0.0,0.0,99999.9,0.0,0.0,0.0,99999.9,-0.1096066770252439,0.23876104167282428,-0.033510321638291124,0.0,0.0,0.0,0.0,0.0,0.0,0.0,0.0,0.0,11.016136833333332,-0.17161637500000002,-4.543747833333333,0.0,0.0,0.0,0.0,0.0,0.0,0.0,0.0,0.0
1403636580.7600129,8349,1403636580,753555500,imu4,0.0,0.0,0.0,1.0,99999.9,0.0,0.0,0.0,99999.9,0.0,0.0,0.0,99999.9,-0.12077678423800758,0.24434609527920614,-0.04468042885105484,0.0,0.0,0.0,0.0,0.0,0.0,0.0,0.0,0.0,11.03248125,-0.18796079166666665,-4.6009532916666664,0.0,0.0,0.0,0.0,0.0,0.0,0.0,0.0,0.0
1403636580.8094213,8350,1403636580,758555500,imu4,0.0,0.0,0.0,1.0,99999.9,0.0,0.0,0.0,99999.9,0.0,0.0,0.0,99999.9,-0.13473941825396224,0.249931148885588,-0.05026548245743669,0.0,0.0,0.0,0.0,0.0,0.0,0.0,0.0,0.0,10.942586958333331,-0.196133,-4.658158749999999,0.0,0.0,0.0,0.0,0.0,0.0,0.0,0.0,0.0
1403636580.8095553,8351,1403636580,763555500,imu4,0.0,0.0,0.0,1.0,99999.9,0.0,0.0,0.0,99999.9,0.0,0.0,0.0,99999.9,-0.13753194505715316,0.25970499269675623,-0.056548667764616284,0.0,0.0,0.0,0.0,0.0,0.0,0.0,0.0,0.0,10.6892485,-0.2860272916666666,-4.649986541666666,0.0,0.0,0.0,0.0,0.0,0.0,0.0,0.0,0.0
1403636580.8096466,8352,1403636580,768555500,imu4,0.0,0.0,0.0,1.0,99999.9,0.0,0.0,0.0,99999.9,0.0,0.0,0.0,99999.9,-0.14032447186034408,0.26878070480712674,-0.05305800926062762,0.0,0.0,0.0,0.0,0.0,0.0,0.0,0.0,0.0,10.476771083333333,-0.32688833333333334,-4.674503166666667,0.0,0.0,0.0,0.0,0.0,0.0,0.0,0.0,0.0
1403636580.8097396,8353,1403636580,773555500,imu4,0.0,0.0,0.0,1.0,99999.9,0.0,0.0,0.0,99999.9,0.0,0.0,0.0,99999.9,-0.13962634015954636,0.2708750999095199,-0.041887902047863905,0.0,0.0,0.0,0.0,0.0,0.0,0.0,0.0,0.0,10.288810291666666,-0.416782625,-4.699019791666666,0.0,0.0,0.0,0.0,0.0,0.0,0.0,0.0,0.0
1403636580.8097763,8354,1403636580,778555500,imu4,0.0,0.0,0.0,1.0,99999.9,0.0,0.0,0.0,99999.9,0.0,0.0,0.0,99999.9,-0.13823007675795088,0.2757620218151041,-0.03560471674068433,0.0,0.0,0.0,0.0,0.0,0.0,0.0,0.0,0.0,9.978266375,-0.32688833333333334,-4.690847583333333,0.0,0.0,0.0,0.0,0.0,0.0,0.0,0.0,0.0
1403636580.809818,8355,1403636580,783555500,imu4,0.0,0.0,0.0,1.0,99999.9,0.0,0.0,0.0,99999.9,0.0,0.0,0.0,99999.9,-0.13334315485236678,0.2834414705238791,-0.028623399732707,0.0,0.0,0.0,0.0,0.0,0.0,0.0,0.0,0.0,9.855683249999998,-0.367749375,-4.682675375,0.0,0.0,0.0,0.0,0.0,0.0,0.0,0.0,0.0
1403636580.809907,8356,1403636580,788555500,imu4,0.0,0.0,0.0,1.0,99999.9,0.0,0.0,0.0,99999.9,0.0,0.0,0.0,99999.9,-0.13683381335635544,0.2869321290278678,-0.029321531433504733,0.0,0.0,0.0,0.0,0.0,0.0,0.0,0.0,0.0,9.831166624999998,-0.3350605416666666,-4.748053041666666,0.0,0.0,0.0,0.0,0.0,0.0,0.0,0.0,0.0
1403636580.8099399,8357,1403636580,793555500,imu4,0.0,0.0,0.0,1.0,99999.9,0.0,0.0,0.0,99999.9,0.0,0.0,0.0,99999.9,-0.14381513036433274,0.2841396022246769,-0.03490658503988659,0.0,0.0,0.0,0.0,0.0,0.0,0.0,0.0,0.0,9.847511041666666,-0.20430520833333332,-4.731708625,0.0,0.0,0.0,0.0,0.0,0.0,0.0,0.0,0.0
1403636580.810033,8358,1403636580,798555500,imu4,0.0,0.0,0.0,1.0,99999.9,0.0,0.0,0.0,99999.9,0.0,0.0,0.0,99999.9,-0.1556833692778942,0.2841396022246769,-0.048869219055841226,0.0,0.0,0.0,0.0,0.0,0.0,0.0,0.0,0.0,9.872027666666666,-0.3105439166666667,-4.658158749999999,0.0,0.0,0.0,0.0,0.0,0.0,0.0,0.0,0.0
1403636580.8101225,8359,1403636580,803555500,imu4,0.0,0.0,0.0,1.0,99999.9,0.0,0.0,0.0,99999.9,0.0,0.0,0.0,99999.9,-0.16824973989225336,0.29042278753185646,-0.06981317007977318,0.0,0.0,0.0,0.0,0.0,0.0,0.0,0.0,0.0,9.970094166666666,-0.34323275000000003,-4.617297708333333,0.0,0.0,0.0,0.0,0.0,0.0,0.0,0.0,0.0
1403636580.8593557,8360,1403636580,808555500,imu4,0.0,0.0,0.0,1.0,99999.9,0.0,0.0,0.0,99999.9,0.0,0.0,0.0,99999.9,-0.17383479349863523,0.29251718263424964,-0.07260569688296412,0.0,0.0,0.0,0.0,0.0,0.0,0.0,0.0,0.0,10.019127416666667,-0.32688833333333334,-4.5519200416666665,0.0,0.0,0.0,0.0,0.0,0.0,0.0,0.0,0.0
1403636580.8595679,8361,1403636580,813555500,imu4,0.0,0.0,0.0,1.0,99999.9,0.0,0.0,0.0,99999.9,0.0,0.0,0.0,99999.9,-0.17732545200262387,0.29391344603584507,-0.06771877497737998,0.0,0.0,0.0,0.0,0.0,0.0,0.0,0.0,0.0,10.027299625,-0.32688833333333334,-4.429336916666666,0.0,0.0,0.0,0.0,0.0,0.0,0.0,0.0,0.0
1403636580.8596044,8362,1403636580,818555500,imu4,0.0,0.0,0.0,1.0,99999.9,0.0,0.0,0.0,99999.9,0.0,0.0,0.0,99999.9,-0.18151424220741028,0.3008947630438224,-0.05166174585903216,0.0,0.0,0.0,0.0,0.0,0.0,0.0,0.0,0.0,10.125366125,-0.3105439166666667,-4.339442625,0.0,0.0,0.0,0.0,0.0,0.0,0.0,0.0,0.0
1403636580.8596385,8363,1403636580,823555500,imu4,0.0,0.0,0.0,1.0,99999.9,0.0,0.0,0.0,99999.9,0.0,0.0,0.0,99999.9,-0.1864011641129944,0.30019663134302466,-0.03490658503988659,0.0,0.0,0.0,0.0,0.0,0.0,0.0,0.0,0.0,10.231604833333332,-0.29419949999999995,-4.274064958333334,0.0,0.0,0.0,0.0,0.0,0.0,0.0,0.0,0.0
1403636580.860561,8364,1403636580,828555500,imu4,0.0,0.0,0.0,1.0,99999.9,0.0,0.0,0.0,99999.9,0.0,0.0,0.0,99999.9,-0.19477874452256716,0.3043854215478111,-0.027925268031909273,0.0,0.0,0.0,0.0,0.0,0.0,0.0,0.0,0.0,10.24794925,-0.2533384583333333,-4.184170666666667,0.0,0.0,0.0,0.0,0.0,0.0,0.0,0.0,0.0
1403636580.8606005,8365,1403636580,833555500,imu4,0.0,0.0,0.0,1.0,99999.9,0.0,0.0,0.0,99999.9,0.0,0.0,0.0,99999.9,-0.19896753472735357,0.3113667385557884,-0.032812189937493394,0.0,0.0,0.0,0.0,0.0,0.0,0.0,0.0,0.0,10.182571583333333,-0.220649625,-4.143309625,0.0,0.0,0.0,0.0,0.0,0.0,0.0,0.0,0.0
1403636580.8606904,8366,1403636580,838555500,imu4,0.0,0.0,0.0,1.0,99999.9,0.0,0.0,0.0,99999.9,0.0,0.0,0.0,99999.9,-0.20664698343612864,0.325329372571743,-0.04049163864626844,0.0,0.0,0.0,0.0,0.0,0.0,0.0,0.0,0.0,10.035471833333334,-0.17978858333333333,-4.135137416666667,0.0,0.0,0.0,0.0,0.0,0.0,0.0,0.0,0.0
1403636580.860762,8367,1403636580,843555500,imu4,0.0,0.0,0.0,1.0,99999.9,0.0,0.0,0.0,99999.9,0.0,0.0,0.0,99999.9,-0.2150245638457014,0.33300882128051806,-0.04677482395344803,0.0,0.0,0.0,0.0,0.0,0.0,0.0,0.0,0.0,9.749444541666666,-0.024516625,-4.077931958333333,0.0,0.0,0.0,0.0,0.0,0.0,0.0,0.0,0.0
1403636580.860846,8368,1403636580,848555500,imu4,0.0,0.0,0.0,1.0,99999.9,0.0,0.0,0.0,99999.9,0.0,0.0,0.0,99999.9,-0.22479840765686968,0.3364994797845067,-0.05794493116621174,0.0,0.0,0.0,0.0,0.0,0.0,0.0,0.0,0.0,9.496106083333332,0.024516625,-4.077931958333333,0.0,0.0,0.0,0.0,0.0,0.0,0.0,0.0,0.0
1403636580.860878,8369,1403636580,853555500,imu4,0.0,0.0,0.0,1.0,99999.9,0.0,0.0,0.0,99999.9,0.0,0.0,0.0,99999.9,-0.23736477827122882,0.3385938748868999,-0.0747000919853573,0.0,0.0,0.0,0.0,0.0,0.0,0.0,0.0,0.0,9.210078791666666,0.032688833333333334,-4.0615875416666665,0.0,0.0,0.0,0.0,0.0,0.0,0.0,0.0,0.0
1403636580.908624,8370,1403636580,858555500,imu4,0.0,0.0,0.0,1.0,99999.9,0.0,0.0,0.0,99999.9,0.0,0.0,0.0,99999.9,-0.24853488548399255,0.3364994797845067,-0.07609635538695278,0.0,0.0,0.0,0.0,0.0,0.0,0.0,0.0,0.0,8.940395916666665,-0.016344416666666667,-4.0615875416666665,0.0,0.0,0.0,0.0,0.0,0.0,0.0,0.0,0.0
1403636580.908903,8371,1403636580,863555500,imu4,0.0,0.0,0.0,1.0,99999.9,0.0,0.0,0.0,99999.9,0.0,0.0,0.0,99999.9,-0.25202554398798116,0.33719761148530447,-0.07330382858376185,0.0,0.0,0.0,0.0,0.0,0.0,0.0,0.0,0.0,8.719746291666667,-0.14709974999999997,-4.045243125,0.0,0.0,0.0,0.0,0.0,0.0,0.0,0.0,0.0
1403636580.9091313,8372,1403636580,868555500,imu4,0.0,0.0,0.0,1.0,99999.9,0.0,0.0,0.0,99999.9,0.0,0.0,0.0,99999.9,-0.2555162024919699,0.3344050846821135,-0.07260569688296412,0.0,0.0,0.0,0.0,0.0,0.0,0.0,0.0,0.0,8.638024208333333,-0.22882183333333334,-4.053415333333333,0.0,0.0,0.0,0.0,0.0,0.0,0.0,0.0,0.0
1403636580.9093604,8373,1403636580,873555500,imu4,0.0,0.0,0.0,1.0,99999.9,0.0,0.0,0.0,99999.9,0.0,0.0,0.0,99999.9,-0.24853488548399255,0.33161255787892263,-0.07260569688296412,0.0,0.0,0.0,0.0,0.0,0.0,0.0,0.0,0.0,8.482752249999999,-0.2860272916666666,-4.004382083333333,0.0,0.0,0.0,0.0,0.0,0.0,0.0,0.0,0.0
1403636580.9096653,8374,1403636580,878555500,imu4,0.0,0.0,0.0,1.0,99999.9,0.0,0.0,0.0,99999.9,0.0,0.0,0.0,99999.9,-0.24713862208239704,0.3323106895797203,-0.0747000919853573,0.0,0.0,0.0,0.0,0.0,0.0,0.0,0.0,0.0,8.466407833333333,-0.3759215833333333,-3.930832208333333,0.0,0.0,0.0,0.0,0.0,0.0,0.0,0.0,0.0
1403636580.9098308,8375,1403636580,883555500,imu4,0.0,0.0,0.0,1.0,99999.9,0.0,0.0,0.0,99999.9,0.0,0.0,0.0,99999.9,-0.239459173373622,0.3274237676741362,-0.0747000919853573,0.0,0.0,0.0,0.0,0.0,0.0,0.0,0.0,0.0,8.539957708333333,-0.43312704166666666,-3.979865458333333,0.0,0.0,0.0,0.0,0.0,0.0,0.0,0.0,0.0
1403636580.9100616,8376,1403636580,888555500,imu4,0.0,0.0,0.0,1.0,99999.9,0.0,0.0,0.0,99999.9,0.0,0.0,0.0,99999.9,-0.2303834612632515,0.3288200310757317,-0.07260569688296412,0.0,0.0,0.0,0.0,0.0,0.0,0.0,0.0,0.0,8.613507583333332,-0.4739880833333333,-3.955348833333333,0.0,0.0,0.0,0.0,0.0,0.0,0.0,0.0,0.0
1403636580.9102206,8377,1403636580,893555500,imu4,0.0,0.0,0.0,1.0,99999.9,0.0,0.0,0.0,99999.9,0.0,0.0,0.0,99999.9,-0.22200588085367873,0.3232349774693498,-0.06283185307179587,0.0,0.0,0.0,0.0,0.0,0.0,0.0,0.0,0.0,8.67888525,-0.5475379583333333,-3.881798958333333,0.0,0.0,0.0,0.0,0.0,0.0,0.0,0.0,0.0
1403636580.9104464,8378,1403636580,898555500,imu4,0.0,0.0,0.0,1.0,99999.9,0.0,0.0,0.0,99999.9,0.0,0.0,0.0,99999.9,-0.20874137853852182,0.3274237676741362,-0.05026548245743669,0.0,0.0,0.0,0.0,0.0,0.0,0.0,0.0,0.0,8.842329416666665,-0.6047434166666666,-3.8654545416666664,0.0,0.0,0.0,0.0,0.0,0.0,0.0,0.0,0.0
1403636580.910611,8379,1403636580,903555500,imu4,0.0,0.0,0.0,1.0,99999.9,0.0,0.0,0.0,99999.9,0.0,0.0,0.0,99999.9,-0.19058995431778078,0.3239331091701475,-0.03630284844148206,0.0,0.0,0.0,0.0,0.0,0.0,0.0,0.0,0.0,8.940395916666665,-0.612915625,-3.8245934999999998,0.0,0.0,0.0,0.0,0.0,0.0,0.0,0.0,0.0
1403636580.9595237,8380,1403636580,908555500,imu4,0.0,0.0,0.0,1.0,99999.9,0.0,0.0,0.0,99999.9,0.0,0.0,0.0,99999.9,-0.17243853009703977,0.3225368457685521,-0.01815142422074103,0.0,0.0,0.0,0.0,0.0,0.0,0.0,0.0,0.0,8.997601374999999,-0.5230213333333333,-3.751043625,0.0,0.0,0.0,0.0,0.0,0.0,0.0,0.0,0.0
1403636580.9595592,8381,1403636580,913555500,imu4,0.0,0.0,0.0,1.0,99999.9,0.0,0.0,0.0,99999.9,0.0,0.0,0.0,99999.9,-0.14800392056911915,0.32812189937493397,0.0,0.0,0.0,0.0,0.0,0.0,0.0,0.0,0.0,0.0,9.013945791666666,-0.5066769166666666,-3.6856659583333333,0.0,0.0,0.0,0.0,0.0,0.0,0.0,0.0,0.0
1403636580.9596512,8382,1403636580,918555500,imu4,0.0,0.0,0.0,1.0,99999.9,0.0,0.0,0.0,99999.9,0.0,0.0,0.0,99999.9,-0.1319468914507713,0.3274237676741362,0.012566370614359173,0.0,0.0,0.0,0.0,0.0,0.0,0.0,0.0,0.0,9.013945791666666,-0.3759215833333333,-3.742871416666666,0.0,0.0,0.0,0.0,0.0,0.0,0.0,0.0,0.0
1403636580.959723,8383,1403636580,923555500,imu4,0.0,0.0,0.0,1.0,99999.9,0.0,0.0,0.0,99999.9,0.0,0.0,0.0,99999.9,-0.11798425743481668,0.33161255787892263,0.01815142422074103,0.0,0.0,0.0,0.0,0.0,0.0,0.0,0.0,0.0,8.825985,-0.29419949999999995,-3.702010375,0.0,0.0,0.0,0.0,0.0,0.0,0.0,0.0,0.0
1403636580.959811,8384,1403636580,928555500,imu4,0.0,0.0,0.0,1.0,99999.9,0.0,0.0,0.0,99999.9,0.0,0.0,0.0,99999.9,-0.10332349171806432,0.3392920065876977,0.01884955592153876,0.0,0.0,0.0,0.0,0.0,0.0,0.0,0.0,0.0,8.646196416666667,-0.29419949999999995,-3.67749375,0.0,0.0,0.0,0.0,0.0,0.0,0.0,0.0,0.0
1403636580.9598434,8385,1403636580,933555500,imu4,0.0,0.0,0.0,1.0,99999.9,0.0,0.0,0.0,99999.9,0.0,0.0,0.0,99999.9,-0.0991347015132779,0.33719761148530447,0.01884955592153876,0.0,0.0,0.0,0.0,0.0,0.0,0.0,0.0,0.0,8.401030166666667,-0.22882183333333334,-3.6693215416666662,0.0,0.0,0.0,0.0,0.0,0.0,0.0,0.0,0.0
1403636580.9599307,8386,1403636580,938555500,imu4,0.0,0.0,0.0,1.0,99999.9,0.0,0.0,0.0,99999.9,0.0,0.0,0.0,99999.9,-0.09145525280450287,0.33161255787892263,0.016755160819145562,0.0,0.0,0.0,0.0,0.0,0.0,0.0,0.0,0.0,8.204897166666667,-0.13075533333333333,-3.6856659583333333,0.0,0.0,0.0,0.0,0.0,0.0,0.0,0.0,0.0
1403636580.9599679,8387,1403636580,943555500,imu4,0.0,0.0,0.0,1.0,99999.9,0.0,0.0,0.0,99999.9,0.0,0.0,0.0,99999.9,-0.08447393579652555,0.3344050846821135,0.013264502315156905,0.0,0.0,0.0,0.0,0.0,0.0,0.0,0.0,0.0,8.155863916666666,-0.08989429166666667,-3.7346992083333332,0.0,0.0,0.0,0.0,0.0,0.0,0.0,0.0,0.0
1403636580.9600022,8388,1403636580,948555500,imu4,0.0,0.0,0.0,1.0,99999.9,0.0,0.0,0.0,99999.9,0.0,0.0,0.0,99999.9,-0.07539822368615504,0.3309144261781249,0.0041887902047863905,0.0,0.0,0.0,0.0,0.0,0.0,0.0,0.0,0.0,8.164036124999999,-0.016344416666666667,-3.77556025,0.0,0.0,0.0,0.0,0.0,0.0,0.0,0.0,0.0
1403636580.9600363,8389,1403636580,953555500,imu4,0.0,0.0,0.0,1.0,99999.9,0.0,0.0,0.0,99999.9,0.0,0.0,0.0,99999.9,-0.07260569688296412,0.3232349774693498,-0.006981317007977318,0.0,0.0,0.0,0.0,0.0,0.0,0.0,0.0,0.0,8.123175083333333,0.122583125,-3.751043625,0.0,0.0,0.0,0.0,0.0,0.0,0.0,0.0,0.0
1403636581.0091827,8390,1403636580,958555500,imu4,0.0,0.0,0.0,1.0,99999.9,0.0,0.0,0.0,99999.9,0.0,0.0,0.0,99999.9,-0.06911503837897544,0.314857397059777,-0.019547687622336492,0.0,0.0,0.0,0.0,0.0,0.0,0.0,0.0,0.0,8.074141833333334,0.220649625,-3.6448049166666663,0.0,0.0,0.0,0.0,0.0,0.0,0.0,0.0,0.0
1403636581.0092332,8391,1403636580,963555500,imu4,0.0,0.0,0.0,1.0,99999.9,0.0,0.0,0.0,99999.9,0.0,0.0,0.0,99999.9,-0.07190756518216637,0.30857421175259747,-0.033510321638291124,0.0,0.0,0.0,0.0,0.0,0.0,0.0,0.0,0.0,8.115002875,0.220649625,-3.546738416666667,0.0,0.0,0.0,0.0,0.0,0.0,0.0,0.0,0.0
1403636581.0093567,8392,1403636580,968555500,imu4,0.0,0.0,0.0,1.0,99999.9,0.0,0.0,0.0,99999.9,0.0,0.0,0.0,99999.9,-0.06911503837897544,0.3050835532486088,-0.032812189937493394,0.0,0.0,0.0,0.0,0.0,0.0,0.0,0.0,0.0,8.147691708333333,0.23699404166666665,-3.4650163333333333,0.0,0.0,0.0,0.0,0.0,0.0,0.0,0.0,0.0
1403636581.0093892,8393,1403636580,973555500,imu4,0.0,0.0,0.0,1.0,99999.9,0.0,0.0,0.0,99999.9,0.0,0.0,0.0,99999.9,-0.05585053606381855,0.30647981665020424,-0.024434609527920613,0.0,0.0,0.0,0.0,0.0,0.0,0.0,0.0,0.0,8.057797416666666,0.13892754166666665,-3.415983083333333,0.0,0.0,0.0,0.0,0.0,0.0,0.0,0.0,0.0
1403636581.0094805,8394,1403636580,978555500,imu4,0.0,0.0,0.0,1.0,99999.9,0.0,0.0,0.0,99999.9,0.0,0.0,0.0,99999.9,-0.0439822971502571,0.3078760800517997,-0.0027925268031909274,0.0,0.0,0.0,0.0,0.0,0.0,0.0,0.0,0.0,8.065969625,-0.04086104166666667,-3.358777625,0.0,0.0,0.0,0.0,0.0,0.0,0.0,0.0,0.0
1403636581.0095172,8395,1403636580,983555500,imu4,0.0,0.0,0.0,1.0,99999.9,0.0,0.0,0.0,99999.9,0.0,0.0,0.0,99999.9,-0.023736477827122883,0.3043854215478111,0.014660765716752367,0.0,0.0,0.0,0.0,0.0,0.0,0.0,0.0,0.0,7.992419749999999,-0.15527195833333335,-3.3015721666666664,0.0,0.0,0.0,0.0,0.0,0.0,0.0,0.0,0.0
1403636581.0095518,8396,1403636580,988555500,imu4,0.0,0.0,0.0,1.0,99999.9,0.0,0.0,0.0,99999.9,0.0,0.0,0.0,99999.9,-0.006981317007977318,0.31066860685499065,0.023736477827122883,0.0,0.0,0.0,0.0,0.0,0.0,0.0,0.0,0.0,7.910697666666666,-0.18796079166666665,-3.195333458333333,0.0,0.0,0.0,0.0,0.0,0.0,0.0,0.0,0.0
1403636581.0095851,8397,1403636580,993555500,imu4,0.0,0.0,0.0,1.0,99999.9,0.0,0.0,0.0,99999.9,0.0,0.0,0.0,99999.9,0.005585053606381855,0.30857421175259747,0.03630284844148206,0.0,0.0,0.0,0.0,0.0,0.0,0.0,0.0,0.0,7.992419749999999,-0.2533384583333333,-3.211677875,0.0,0.0,0.0,0.0,0.0,0.0,0.0,0.0,0.0
1403636581.0109396,8398,1403636580,998555500,imu4,0.0,0.0,0.0,1.0,99999.9,0.0,0.0,0.0,99999.9,0.0,0.0,0.0,99999.9,0.020943951023931952,0.30159289474462014,0.05166174585903216,0.0,0.0,0.0,0.0,0.0,0.0,0.0,0.0,0.0,7.992419749999999,-0.21247741666666667,-3.2525389166666665,0.0,0.0,0.0,0.0,0.0,0.0,0.0,0.0,0.0
1403636581.010979,8399,1403636581,3555500,imu4,0.0,0.0,0.0,1.0,99999.9,0.0,0.0,0.0,99999.9,0.0,0.0,0.0,99999.9,0.029321531433504733,0.2932153143350474,0.0747000919853573,0.0,0.0,0.0,0.0,0.0,0.0,0.0,0.0,0.0,7.9433865,-0.13892754166666665,-3.178989041666666,0.0,0.0,0.0,0.0,0.0,0.0,0.0,0.0,0.0
1403636581.0591094,8400,1403636581,8555500,imu4,0.0,0.0,0.0,1.0,99999.9,0.0,0.0,0.0,99999.9,0.0,0.0,0.0,99999.9,0.03490658503988659,0.2876302607286655,0.09843656981248018,0.0,0.0,0.0,0.0,0.0,0.0,0.0,0.0,0.0,7.886181041666666,-0.10623870833333333,-3.1299557916666663,0.0,0.0,0.0,0.0,0.0,0.0,0.0,0.0,0.0
1403636581.0591555,8401,1403636581,13555500,imu4,0.0,0.0,0.0,1.0,99999.9,0.0,0.0,0.0,99999.9,0.0,0.0,0.0,99999.9,0.039095375244672985,0.28064894372068816,0.12775810124598494,0.0,0.0,0.0,0.0,0.0,0.0,0.0,0.0,0.0,8.065969625,-0.032688833333333334,-3.1299557916666663,0.0,0.0,0.0,0.0,0.0,0.0,0.0,0.0,0.0
1403636581.0602303,8402,1403636581,18555500,imu4,0.0,0.0,0.0,1.0,99999.9,0.0,0.0,0.0,99999.9,0.0,0.0,0.0,99999.9,0.03839724354387525,0.28204520712228365,0.153588974175501,0.0,0.0,0.0,0.0,0.0,0.0,0.0,0.0,0.0,8.270274833333334,0.024516625,-3.2035056666666666,0.0,0.0,0.0,0.0,0.0,0.0,0.0,0.0,0.0
1403636581.0602713,8403,1403636581,23555500,imu4,0.0,0.0,0.0,1.0,99999.9,0.0,0.0,0.0,99999.9,0.0,0.0,0.0,99999.9,0.04049163864626844,0.29251718263424964,0.16615534478986016,0.0,0.0,0.0,0.0,0.0,0.0,0.0,0.0,0.0,8.425546791666665,0.024516625,-3.195333458333333,0.0,0.0,0.0,0.0,0.0,0.0,0.0,0.0,0.0
1403636581.0603116,8404,1403636581,28555500,imu4,0.0,0.0,0.0,1.0,99999.9,0.0,0.0,0.0,99999.9,0.0,0.0,0.0,99999.9,0.039793506945470715,0.3008947630438224,0.16196655458507375,0.0,0.0,0.0,0.0,0.0,0.0,0.0,0.0,0.0,8.5317855,0.11441091666666667,-3.3506054166666663,0.0,0.0,0.0,0.0,0.0,0.0,0.0,0.0,0.0
1403636581.0709772,8405,1403636581,33555500,imu4,0.0,0.0,0.0,1.0,99999.9,0.0,0.0,0.0,99999.9,0.0,0.0,0.0,99999.9,0.04049163864626844,0.3022910264454179,0.1424188669627373,0.0,0.0,0.0,0.0,0.0,0.0,0.0,0.0,0.0,8.5317855,0.3023717083333333,-3.366949833333333,0.0,0.0,0.0,0.0,0.0,0.0,0.0,0.0,0.0
1403636581.071016,8406,1403636581,38555500,imu4,0.0,0.0,0.0,1.0,99999.9,0.0,0.0,0.0,99999.9,0.0,0.0,0.0,99999.9,0.03700098014227979,0.30647981665020424,0.11728612573401893,0.0,0.0,0.0,0.0,0.0,0.0,0.0,0.0,0.0,8.425546791666665,0.43312704166666666,-3.3506054166666663,0.0,0.0,0.0,0.0,0.0,0.0,0.0,0.0,0.0
1403636581.0710669,8407,1403636581,43555500,imu4,0.0,0.0,0.0,1.0,99999.9,0.0,0.0,0.0,99999.9,0.0,0.0,0.0,99999.9,0.033510321638291124,0.29949849964222697,0.08307767239493008,0.0,0.0,0.0,0.0,0.0,0.0,0.0,0.0,0.0,8.392857958333332,0.5066769166666666,-3.342433208333333,0.0,0.0,0.0,0.0,0.0,0.0,0.0,0.0,0.0
1403636581.0711036,8408,1403636581,48555500,imu4,0.0,0.0,0.0,1.0,99999.9,0.0,0.0,0.0,99999.9,0.0,0.0,0.0,99999.9,0.02583087292951608,0.28832839242946323,0.0635299847725936,0.0,0.0,0.0,0.0,0.0,0.0,0.0,0.0,0.0,8.311135875,0.6537766666666667,-3.3751220416666667,0.0,0.0,0.0,0.0,0.0,0.0,0.0,0.0,0.0
1403636581.0711534,8409,1403636581,53555500,imu4,0.0,0.0,0.0,1.0,99999.9,0.0,0.0,0.0,99999.9,0.0,0.0,0.0,99999.9,0.01884955592153876,0.278554548618295,0.05445427266222308,0.0,0.0,0.0,0.0,0.0,0.0,0.0,0.0,0.0,8.327480291666665,0.6946377083333333,-3.317916583333333,0.0,0.0,0.0,0.0,0.0,0.0,0.0,0.0,0.0
1403636581.1086397,8410,1403636581,58555500,imu4,0.0,0.0,0.0,1.0,99999.9,0.0,0.0,0.0,99999.9,0.0,0.0,0.0,99999.9,0.010471975511965976,0.27715828521669955,0.04537856055185257,0.0,0.0,0.0,0.0,0.0,0.0,0.0,0.0,0.0,8.351996916666666,0.5557101666666666,-3.293399958333333,0.0,0.0,0.0,0.0,0.0,0.0,0.0,0.0,0.0
1403636581.1086829,8411,1403636581,63555500,imu4,0.0,0.0,0.0,1.0,99999.9,0.0,0.0,0.0,99999.9,0.0,0.0,0.0,99999.9,0.0027925268031909274,0.2715732316103177,0.03839724354387525,0.0,0.0,0.0,0.0,0.0,0.0,0.0,0.0,0.0,8.376513541666666,0.4903325,-3.2525389166666665,0.0,0.0,0.0,0.0,0.0,0.0,0.0,0.0,0.0
1403636581.1087184,8412,1403636581,68555500,imu4,0.0,0.0,0.0,1.0,99999.9,0.0,0.0,0.0,99999.9,0.0,0.0,0.0,99999.9,0.0020943951023931952,0.2708750999095199,0.033510321638291124,0.0,0.0,0.0,0.0,0.0,0.0,0.0,0.0,0.0,8.311135875,0.3759215833333333,-3.1299557916666663,0.0,0.0,0.0,0.0,0.0,0.0,0.0,0.0,0.0
1403636581.1088102,8413,1403636581,73555500,imu4,0.0,0.0,0.0,1.0,99999.9,0.0,0.0,0.0,99999.9,0.0,0.0,0.0,99999.9,-0.0006981317007977319,0.28064894372068816,0.032812189937493394,0.0,0.0,0.0,0.0,0.0,0.0,0.0,0.0,0.0,8.270274833333334,0.3105439166666667,-3.0482337083333335,0.0,0.0,0.0,0.0,0.0,0.0,0.0,0.0,0.0
1403636581.1089544,8414,1403636581,78555500,imu4,0.0,0.0,0.0,1.0,99999.9,0.0,0.0,0.0,99999.9,0.0,0.0,0.0,99999.9,-0.009773843811168246,0.2827433388230814,0.04328416544945937,0.0,0.0,0.0,0.0,0.0,0.0,0.0,0.0,0.0,8.196724958333332,0.2533384583333333,-3.0318892916666664,0.0,0.0,0.0,0.0,0.0,0.0,0.0,0.0,0.0
1403636581.1089907,8415,1403636581,83555500,imu4,0.0,0.0,0.0,1.0,99999.9,0.0,0.0,0.0,99999.9,0.0,0.0,0.0,99999.9,-0.012566370614359173,0.2778564169174973,0.06422811647339133,0.0,0.0,0.0,0.0,0.0,0.0,0.0,0.0,0.0,8.065969625,0.196133,-2.8847895416666667,0.0,0.0,0.0,0.0,0.0,0.0,0.0,0.0,0.0
1403636581.1090243,8416,1403636581,88555500,imu4,0.0,0.0,0.0,1.0,99999.9,0.0,0.0,0.0,99999.9,0.0,0.0,0.0,99999.9,-0.01884955592153876,0.278554548618295,0.09843656981248018,0.0,0.0,0.0,0.0,0.0,0.0,0.0,0.0,0.0,7.967903124999999,0.10623870833333333,-2.778550833333333,0.0,0.0,0.0,0.0,0.0,0.0,0.0,0.0,0.0
1403636581.109123,8417,1403636581,93555500,imu4,0.0,0.0,0.0,1.0,99999.9,0.0,0.0,0.0,99999.9,0.0,0.0,0.0,99999.9,-0.023736477827122883,0.27715828521669955,0.14102260356114182,0.0,0.0,0.0,0.0,0.0,0.0,0.0,0.0,0.0,8.025108583333333,0.0,-2.7948952499999997,0.0,0.0,0.0,0.0,0.0,0.0,0.0,0.0,0.0
1403636581.1092439,8418,1403636581,98555500,imu4,0.0,0.0,0.0,1.0,99999.9,0.0,0.0,0.0,99999.9,0.0,0.0,0.0,99999.9,-0.03420845333908886,0.2841396022246769,0.1780235837034216,0.0,0.0,0.0,0.0,0.0,0.0,0.0,0.0,0.0,8.082314041666667,0.016344416666666667,-2.8194118749999997,0.0,0.0,0.0,0.0,0.0,0.0,0.0,0.0,0.0
1403636581.1092784,8419,1403636581,103555500,imu4,0.0,0.0,0.0,1.0,99999.9,0.0,0.0,0.0,99999.9,0.0,0.0,0.0,99999.9,-0.039793506945470715,0.2981022362406315,0.20385445663293766,0.0,0.0,0.0,0.0,0.0,0.0,0.0,0.0,0.0,8.213069375,0.08989429166666667,-2.827584083333333,0.0,0.0,0.0,0.0,0.0,0.0,0.0,0.0,0.0
1403636581.1594782,8420,1403636581,108555500,imu4,0.0,0.0,0.0,1.0,99999.9,0.0,0.0,0.0,99999.9,0.0,0.0,0.0,99999.9,-0.05026548245743669,0.3127630019573839,0.2303834612632515,0.0,0.0,0.0,0.0,0.0,0.0,0.0,0.0,0.0,8.237585999999999,0.057205458333333334,-2.8929617499999996,0.0,0.0,0.0,0.0,0.0,0.0,0.0,0.0,0.0
1403636581.1595147,8421,1403636581,113555500,imu4,0.0,0.0,0.0,1.0,99999.9,0.0,0.0,0.0,99999.9,0.0,0.0,0.0,99999.9,-0.060039326268604934,0.32812189937493397,0.23806290997202653,0.0,0.0,0.0,0.0,0.0,0.0,0.0,0.0,0.0,8.155863916666666,0.024516625,-2.9093061666666666,0.0,0.0,0.0,0.0,0.0,0.0,0.0,0.0,0.0
1403636581.159575,8422,1403636581,118555500,imu4,0.0,0.0,0.0,1.0,99999.9,0.0,0.0,0.0,99999.9,0.0,0.0,0.0,99999.9,-0.05585053606381855,0.33510321638291124,0.24434609527920614,0.0,0.0,0.0,0.0,0.0,0.0,0.0,0.0,0.0,7.976075333333333,0.016344416666666667,-2.9174783749999995,0.0,0.0,0.0,0.0,0.0,0.0,0.0,0.0,0.0
1403636581.159612,8423,1403636581,123555500,imu4,0.0,0.0,0.0,1.0,99999.9,0.0,0.0,0.0,99999.9,0.0,0.0,0.0,99999.9,-0.05026548245743669,0.33719761148530447,0.24504422698000386,0.0,0.0,0.0,0.0,0.0,0.0,0.0,0.0,0.0,7.967903124999999,0.04903325,-3.0318892916666664,0.0,0.0,0.0,0.0,0.0,0.0,0.0,0.0,0.0
1403636581.1596513,8424,1403636581,128555500,imu4,0.0,0.0,0.0,1.0,99999.9,0.0,0.0,0.0,99999.9,0.0,0.0,0.0,99999.9,-0.04468042885105484,0.3427826650916863,0.23876104167282428,0.0,0.0,0.0,0.0,0.0,0.0,0.0,0.0,0.0,8.082314041666667,0.14709974999999997,-3.18716125,0.0,0.0,0.0,0.0,0.0,0.0,0.0,0.0,0.0
1403636581.1596828,8425,1403636581,133555500,imu4,0.0,0.0,0.0,1.0,99999.9,0.0,0.0,0.0,99999.9,0.0,0.0,0.0,99999.9,-0.03420845333908886,0.3392920065876977,0.23108159296404923,0.0,0.0,0.0,0.0,0.0,0.0,0.0,0.0,0.0,8.025108583333333,0.23699404166666665,-3.260711125,0.0,0.0,0.0,0.0,0.0,0.0,0.0,0.0,0.0
1403636581.1597145,8426,1403636581,138555500,imu4,0.0,0.0,0.0,1.0,99999.9,0.0,0.0,0.0,99999.9,0.0,0.0,0.0,99999.9,-0.02652900463031381,0.34417892849328174,0.21851522234969004,0.0,0.0,0.0,0.0,0.0,0.0,0.0,0.0,0.0,8.041452999999999,0.2860272916666666,-3.334261,0.0,0.0,0.0,0.0,0.0,0.0,0.0,0.0,0.0
1403636581.1597428,8427,1403636581,143555500,imu4,0.0,0.0,0.0,1.0,99999.9,0.0,0.0,0.0,99999.9,0.0,0.0,0.0,99999.9,-0.016057029118347832,0.3392920065876977,0.19687313962496036,0.0,0.0,0.0,0.0,0.0,0.0,0.0,0.0,0.0,8.074141833333334,0.40861041666666664,-3.366949833333333,0.0,0.0,0.0,0.0,0.0,0.0,0.0,0.0,0.0
1403636581.1598642,8428,1403636581,148555500,imu4,0.0,0.0,0.0,1.0,99999.9,0.0,0.0,0.0,99999.9,0.0,0.0,0.0,99999.9,-0.010471975511965976,0.3385938748868999,0.17034413499464657,0.0,0.0,0.0,0.0,0.0,0.0,0.0,0.0,0.0,8.041452999999999,0.465815875,-3.293399958333333,0.0,0.0,0.0,0.0,0.0,0.0,0.0,0.0,0.0
1403636581.1599004,8429,1403636581,153555500,imu4,0.0,0.0,0.0,1.0,99999.9,0.0,0.0,0.0,99999.9,0.0,0.0,0.0,99999.9,0.0013962634015954637,0.3364994797845067,0.1466076571675237,0.0,0.0,0.0,0.0,0.0,0.0,0.0,0.0,0.0,7.976075333333333,0.416782625,-3.178989041666666,0.0,0.0,0.0,0.0,0.0,0.0,0.0,0.0,0.0
1403636581.2091496,8430,1403636581,158555500,imu4,0.0,0.0,0.0,1.0,99999.9,0.0,0.0,0.0,99999.9,0.0,0.0,0.0,99999.9,0.006981317007977318,0.3288200310757317,0.1228711793404008,0.0,0.0,0.0,0.0,0.0,0.0,0.0,0.0,0.0,7.959730916666666,0.45764366666666667,-3.1054391666666663,0.0,0.0,0.0,0.0,0.0,0.0,0.0,0.0,0.0
1403636581.2092261,8431,1403636581,163555500,imu4,0.0,0.0,0.0,1.0,99999.9,0.0,0.0,0.0,99999.9,0.0,0.0,0.0,99999.9,0.013962634015954637,0.3302162944773272,0.11519173063162574,0.0,0.0,0.0,0.0,0.0,0.0,0.0,0.0,0.0,7.902525458333333,0.44129925,-3.023717083333333,0.0,0.0,0.0,0.0,0.0,0.0,0.0,0.0,0.0
1403636581.2092614,8432,1403636581,168555500,imu4,0.0,0.0,0.0,1.0,99999.9,0.0,0.0,0.0,99999.9,0.0,0.0,0.0,99999.9,0.010471975511965976,0.33161255787892263,0.11239920382843484,0.0,0.0,0.0,0.0,0.0,0.0,0.0,0.0,0.0,7.820803375,0.4004382083333333,-2.982856041666666,0.0,0.0,0.0,0.0,0.0,0.0,0.0,0.0,0.0
1403636581.2092927,8433,1403636581,173555500,imu4,0.0,0.0,0.0,1.0,99999.9,0.0,0.0,0.0,99999.9,0.0,0.0,0.0,99999.9,0.006981317007977318,0.335801348083709,0.11588986233242347,0.0,0.0,0.0,0.0,0.0,0.0,0.0,0.0,0.0,7.84532,0.35957716666666667,-2.966511625,0.0,0.0,0.0,0.0,0.0,0.0,0.0,0.0,0.0
1403636581.2093825,8434,1403636581,178555500,imu4,0.0,0.0,0.0,1.0,99999.9,0.0,0.0,0.0,99999.9,0.0,0.0,0.0,99999.9,-0.0006981317007977319,0.3392920065876977,0.11938052083641214,0.0,0.0,0.0,0.0,0.0,0.0,0.0,0.0,0.0,7.8289755833333325,0.2860272916666666,-2.9174783749999995,0.0,0.0,0.0,0.0,0.0,0.0,0.0,0.0,0.0
1403636581.2094245,8435,1403636581,183555500,imu4,0.0,0.0,0.0,1.0,99999.9,0.0,0.0,0.0,99999.9,0.0,0.0,0.0,99999.9,-0.009075712110370514,0.34348079679248406,0.12845623294678266,0.0,0.0,0.0,0.0,0.0,0.0,0.0,0.0,0.0,7.714564666666666,0.17978858333333333,-2.811239666666667,0.0,0.0,0.0,0.0,0.0,0.0,0.0,0.0,0.0
1403636581.2094603,8436,1403636581,188555500,imu4,0.0,0.0,0.0,1.0,99999.9,0.0,0.0,0.0,99999.9,0.0,0.0,0.0,99999.9,-0.021642082724729686,0.346273323595675,0.13892820845874865,0.0,0.0,0.0,0.0,0.0,0.0,0.0,0.0,0.0,7.706392458333333,0.057205458333333334,-2.7703786249999998,0.0,0.0,0.0,0.0,0.0,0.0,0.0,0.0,0.0
1403636581.2106605,8437,1403636581,193555500,imu4,0.0,0.0,0.0,1.0,99999.9,0.0,0.0,0.0,99999.9,0.0,0.0,0.0,99999.9,-0.03490658503988659,0.34417892849328174,0.15917402778188286,0.0,0.0,0.0,0.0,0.0,0.0,0.0,0.0,0.0,7.714564666666666,-0.04086104166666667,-2.705000958333333,0.0,0.0,0.0,0.0,0.0,0.0,0.0,0.0,0.0
1403636581.2106984,8438,1403636581,198555500,imu4,0.0,0.0,0.0,1.0,99999.9,0.0,0.0,0.0,99999.9,0.0,0.0,0.0,99999.9,-0.046076692252650306,0.34417892849328174,0.182212373908208,0.0,0.0,0.0,0.0,0.0,0.0,0.0,0.0,0.0,7.788114541666666,-0.08989429166666667,-2.655967708333333,0.0,0.0,0.0,0.0,0.0,0.0,0.0,0.0,0.0
1403636581.2107325,8439,1403636581,203555500,imu4,0.0,0.0,0.0,1.0,99999.9,0.0,0.0,0.0,99999.9,0.0,0.0,0.0,99999.9,-0.05235987755982988,0.3553490357060455,0.1996656664281513,0.0,0.0,0.0,0.0,0.0,0.0,0.0,0.0,0.0,7.9188698749999995,-0.22882183333333334,-2.6477955,0.0,0.0,0.0,0.0,0.0,0.0,0.0,0.0,0.0
1403636581.2594318,8440,1403636581,208555500,imu4,0.0,0.0,0.0,1.0,99999.9,0.0,0.0,0.0,99999.9,0.0,0.0,0.0,99999.9,-0.05375614096142535,0.36302848441482055,0.2192133540504878,0.0,0.0,0.0,0.0,0.0,0.0,0.0,0.0,0.0,8.082314041666667,-0.2778550833333333,-2.7376897916666665,0.0,0.0,0.0,0.0,0.0,0.0,0.0,0.0,0.0
1403636581.2594697,8441,1403636581,213555500,imu4,0.0,0.0,0.0,1.0,99999.9,0.0,0.0,0.0,99999.9,0.0,0.0,0.0,99999.9,-0.05235987755982988,0.3769911184307752,0.23527038316883564,0.0,0.0,0.0,0.0,0.0,0.0,0.0,0.0,0.0,8.115002875,-0.26151066666666667,-2.7948952499999997,0.0,0.0,0.0,0.0,0.0,0.0,0.0,0.0,0.0
1403636581.2595048,8442,1403636581,218555500,imu4,0.0,0.0,0.0,1.0,99999.9,0.0,0.0,0.0,99999.9,0.0,0.0,0.0,99999.9,-0.0439822971502571,0.39793506945470714,0.24504422698000386,0.0,0.0,0.0,0.0,0.0,0.0,0.0,0.0,0.0,8.057797416666666,-0.17978858333333333,-2.8602729166666667,0.0,0.0,0.0,0.0,0.0,0.0,0.0,0.0,0.0
1403636581.2595406,8443,1403636581,223555500,imu4,0.0,0.0,0.0,1.0,99999.9,0.0,0.0,0.0,99999.9,0.0,0.0,0.0,99999.9,-0.03420845333908886,0.40491638646268446,0.23876104167282428,0.0,0.0,0.0,0.0,0.0,0.0,0.0,0.0,0.0,7.959730916666666,-0.08989429166666667,-2.966511625,0.0,0.0,0.0,0.0,0.0,0.0,0.0,0.0,0.0
1403636581.2595778,8444,1403636581,228555500,imu4,0.0,0.0,0.0,1.0,99999.9,0.0,0.0,0.0,99999.9,0.0,0.0,0.0,99999.9,-0.02722713633111154,0.40142572795869574,0.2241002759560719,0.0,0.0,0.0,0.0,0.0,0.0,0.0,0.0,0.0,7.84532,0.016344416666666667,-2.982856041666666,0.0,0.0,0.0,0.0,0.0,0.0,0.0,0.0,0.0
1403636581.2596104,8445,1403636581,233555500,imu4,0.0,0.0,0.0,1.0,99999.9,0.0,0.0,0.0,99999.9,0.0,0.0,0.0,99999.9,-0.019547687622336492,0.3909537524467298,0.210835773640915,0.0,0.0,0.0,0.0,0.0,0.0,0.0,0.0,0.0,7.641014791666667,0.04086104166666667,-2.982856041666666,0.0,0.0,0.0,0.0,0.0,0.0,0.0,0.0,0.0
1403636581.2596395,8446,1403636581,238555500,imu4,0.0,0.0,0.0,1.0,99999.9,0.0,0.0,0.0,99999.9,0.0,0.0,0.0,99999.9,-0.00767944870877505,0.37768925013157295,0.19338248112097173,0.0,0.0,0.0,0.0,0.0,0.0,0.0,0.0,0.0,7.559292708333333,0.0,-2.999200458333333,0.0,0.0,0.0,0.0,0.0,0.0,0.0,0.0,0.0
1403636581.2598581,8447,1403636581,243555500,imu4,0.0,0.0,0.0,1.0,99999.9,0.0,0.0,0.0,99999.9,0.0,0.0,0.0,99999.9,0.0020943951023931952,0.36302848441482055,0.1710422666954443,0.0,0.0,0.0,0.0,0.0,0.0,0.0,0.0,0.0,7.567464916666665,0.024516625,-2.99102825,0.0,0.0,0.0,0.0,0.0,0.0,0.0,0.0,0.0
1403636581.2599568,8448,1403636581,248555500,imu4,0.0,0.0,0.0,1.0,99999.9,0.0,0.0,0.0,99999.9,0.0,0.0,0.0,99999.9,0.017453292519943295,0.35465090400524774,0.14800392056911915,0.0,0.0,0.0,0.0,0.0,0.0,0.0,0.0,0.0,7.583809333333333,-0.024516625,-3.0073726666666665,0.0,0.0,0.0,0.0,0.0,0.0,0.0,0.0,0.0
1403636581.2599897,8449,1403636581,253555500,imu4,0.0,0.0,0.0,1.0,99999.9,0.0,0.0,0.0,99999.9,0.0,0.0,0.0,99999.9,0.033510321638291124,0.3518583772020568,0.12217304763960307,0.0,0.0,0.0,0.0,0.0,0.0,0.0,0.0,0.0,7.591981541666666,-0.08172208333333333,-2.982856041666666,0.0,0.0,0.0,0.0,0.0,0.0,0.0,0.0,0.0
1403636581.308376,8450,1403636581,258555500,imu4,0.0,0.0,0.0,1.0,99999.9,0.0,0.0,0.0,99999.9,0.0,0.0,0.0,99999.9,0.04328416544945937,0.3511602455012591,0.09704030641088471,0.0,0.0,0.0,0.0,0.0,0.0,0.0,0.0,0.0,7.5102594583333335,-0.008172208333333333,-2.9093061666666666,0.0,0.0,0.0,0.0,0.0,0.0,0.0,0.0,0.0
1403636581.3085756,8451,1403636581,263555500,imu4,0.0,0.0,0.0,1.0,99999.9,0.0,0.0,0.0,99999.9,0.0,0.0,0.0,99999.9,0.05166174585903216,0.3511602455012591,0.07749261878854824,0.0,0.0,0.0,0.0,0.0,0.0,0.0,0.0,0.0,7.265093208333333,0.032688833333333334,-2.7622064166666664,0.0,0.0,0.0,0.0,0.0,0.0,0.0,0.0,0.0
1403636581.3086479,8452,1403636581,268555500,imu4,0.0,0.0,0.0,1.0,99999.9,0.0,0.0,0.0,99999.9,0.0,0.0,0.0,99999.9,0.05235987755982988,0.35046211380046133,0.05864306286700947,0.0,0.0,0.0,0.0,0.0,0.0,0.0,0.0,0.0,6.979065916666666,0.04903325,-2.655967708333333,0.0,0.0,0.0,0.0,0.0,0.0,0.0,0.0,0.0
1403636581.3088827,8453,1403636581,273555500,imu4,0.0,0.0,0.0,1.0,99999.9,0.0,0.0,0.0,99999.9,0.0,0.0,0.0,99999.9,0.048869219055841226,0.3399901382884954,0.046076692252650306,0.0,0.0,0.0,0.0,0.0,0.0,0.0,0.0,0.0,6.856482791666667,0.04086104166666667,-2.6477955,0.0,0.0,0.0,0.0,0.0,0.0,0.0,0.0,0.0
1403636581.3090441,8454,1403636581,278555500,imu4,0.0,0.0,0.0,1.0,99999.9,0.0,0.0,0.0,99999.9,0.0,0.0,0.0,99999.9,0.03630284844148206,0.3274237676741362,0.0307177948351002,0.0,0.0,0.0,0.0,0.0,0.0,0.0,0.0,0.0,6.684866416666666,0.024516625,-2.549729,0.0,0.0,0.0,0.0,0.0,0.0,0.0,0.0,0.0
1403636581.3092034,8455,1403636581,283555500,imu4,0.0,0.0,0.0,1.0,99999.9,0.0,0.0,0.0,99999.9,0.0,0.0,0.0,99999.9,0.021642082724729686,0.3246312408709453,0.023736477827122883,0.0,0.0,0.0,0.0,0.0,0.0,0.0,0.0,0.0,6.537766666666666,-0.032688833333333334,-2.459834708333333,0.0,0.0,0.0,0.0,0.0,0.0,0.0,0.0,0.0
1403636581.3093874,8456,1403636581,288555500,imu4,0.0,0.0,0.0,1.0,99999.9,0.0,0.0,0.0,99999.9,0.0,0.0,0.0,99999.9,0.004886921905584123,0.3162536604613725,0.02652900463031381,0.0,0.0,0.0,0.0,0.0,0.0,0.0,0.0,0.0,6.42335575,-0.11441091666666667,-2.4108014583333333,0.0,0.0,0.0,0.0,0.0,0.0,0.0,0.0,0.0
1403636581.3095477,8457,1403636581,293555500,imu4,0.0,0.0,0.0,1.0,99999.9,0.0,0.0,0.0,99999.9,0.0,0.0,0.0,99999.9,-0.008377580409572781,0.3204424506661589,0.03490658503988659,0.0,0.0,0.0,0.0,0.0,0.0,0.0,0.0,0.0,6.317117041666666,-0.16344416666666667,-2.3127349583333334,0.0,0.0,0.0,0.0,0.0,0.0,0.0,0.0,0.0
1403636581.3095903,8458,1403636581,298555500,imu4,0.0,0.0,0.0,1.0,99999.9,0.0,0.0,0.0,99999.9,0.0,0.0,0.0,99999.9,-0.014660765716752367,0.31695179216217023,0.04468042885105484,0.0,0.0,0.0,0.0,0.0,0.0,0.0,0.0,0.0,6.202706124999999,-0.35957716666666667,-2.1166019583333333,0.0,0.0,0.0,0.0,0.0,0.0,0.0,0.0,0.0
1403636581.309717,8459,1403636581,303555500,imu4,0.0,0.0,0.0,1.0,99999.9,0.0,0.0,0.0,99999.9,0.0,0.0,0.0,99999.9,-0.023038346126325153,0.30927234345339516,0.057246799465414,0.0,0.0,0.0,0.0,0.0,0.0,0.0,0.0,0.0,6.235394958333333,-0.53936575,-2.0267076666666664,0.0,0.0,0.0,0.0,0.0,0.0,0.0,0.0,0.0
1403636581.3593912,8460,1403636581,308555500,imu4,0.0,0.0,0.0,1.0,99999.9,0.0,0.0,0.0,99999.9,0.0,0.0,0.0,99999.9,-0.02234021442552742,0.3078760800517997,0.07051130178057091,0.0,0.0,0.0,0.0,0.0,0.0,0.0,0.0,0.0,6.292600416666667,-0.5230213333333333,-1.9776744166666664,0.0,0.0,0.0,0.0,0.0,0.0,0.0,0.0,0.0
1403636581.3594282,8461,1403636581,313555500,imu4,0.0,0.0,0.0,1.0,99999.9,0.0,0.0,0.0,99999.9,0.0,0.0,0.0,99999.9,-0.01815142422074103,0.2981022362406315,0.08587019919812101,0.0,0.0,0.0,0.0,0.0,0.0,0.0,0.0,0.0,6.276256,-0.5230213333333333,-1.887780125,0.0,0.0,0.0,0.0,0.0,0.0,0.0,0.0,0.0
1403636581.3595173,8462,1403636581,318555500,imu4,0.0,0.0,0.0,1.0,99999.9,0.0,0.0,0.0,99999.9,0.0,0.0,0.0,99999.9,-0.016755160819145562,0.2932153143350474,0.09843656981248018,0.0,0.0,0.0,0.0,0.0,0.0,0.0,0.0,0.0,6.32528925,-0.392266,-1.8224024583333331,0.0,0.0,0.0,0.0,0.0,0.0,0.0,0.0,0.0
1403636581.3595545,8463,1403636581,323555500,imu4,0.0,0.0,0.0,1.0,99999.9,0.0,0.0,0.0,99999.9,0.0,0.0,0.0,99999.9,-0.0153588974175501,0.2778564169174973,0.10681415022205297,0.0,0.0,0.0,0.0,0.0,0.0,0.0,0.0,0.0,6.3089448333333324,-0.21247741666666667,-1.7978858333333332,0.0,0.0,0.0,0.0,0.0,0.0,0.0,0.0,0.0
1403636581.3595867,8464,1403636581,328555500,imu4,0.0,0.0,0.0,1.0,99999.9,0.0,0.0,0.0,99999.9,0.0,0.0,0.0,99999.9,-0.012566370614359173,0.260403124397554,0.10681415022205297,0.0,0.0,0.0,0.0,0.0,0.0,0.0,0.0,0.0,6.276256,-0.04903325,-1.765197,0.0,0.0,0.0,0.0,0.0,0.0,0.0,0.0,0.0
1403636581.359661,8465,1403636581,333555500,imu4,0.0,0.0,0.0,1.0,99999.9,0.0,0.0,0.0,99999.9,0.0,0.0,0.0,99999.9,-0.019547687622336492,0.249931148885588,0.10192722831646883,0.0,0.0,0.0,0.0,0.0,0.0,0.0,0.0,0.0,6.251739374999999,-0.008172208333333333,-1.6998193333333333,0.0,0.0,0.0,0.0,0.0,0.0,0.0,0.0,0.0
1403636581.3597512,8466,1403636581,338555500,imu4,0.0,0.0,0.0,1.0,99999.9,0.0,0.0,0.0,99999.9,0.0,0.0,0.0,99999.9,-0.020943951023931952,0.22968532956245377,0.09215338450530061,0.0,0.0,0.0,0.0,0.0,0.0,0.0,0.0,0.0,6.22722275,0.024516625,-1.7079915416666664,0.0,0.0,0.0,0.0,0.0,0.0,0.0,0.0,0.0
1403636581.3597875,8467,1403636581,343555500,imu4,0.0,0.0,0.0,1.0,99999.9,0.0,0.0,0.0,99999.9,0.0,0.0,0.0,99999.9,-0.023038346126325153,0.21781709064889232,0.08098327729253688,0.0,0.0,0.0,0.0,0.0,0.0,0.0,0.0,0.0,6.161845083333333,0.08989429166666667,-1.7161637499999998,0.0,0.0,0.0,0.0,0.0,0.0,0.0,0.0,0.0
1403636581.359829,8468,1403636581,348555500,imu4,0.0,0.0,0.0,1.0,99999.9,0.0,0.0,0.0,99999.9,0.0,0.0,0.0,99999.9,-0.02652900463031381,0.20036379812894903,0.06562437987498679,0.0,0.0,0.0,0.0,0.0,0.0,0.0,0.0,0.0,6.055606375,0.16344416666666667,-1.6998193333333333,0.0,0.0,0.0,0.0,0.0,0.0,0.0,0.0,0.0
1403636581.3598623,8469,1403636581,353555500,imu4,0.0,0.0,0.0,1.0,99999.9,0.0,0.0,0.0,99999.9,0.0,0.0,0.0,99999.9,-0.0307177948351002,0.18709929581379212,0.046076692252650306,0.0,0.0,0.0,0.0,0.0,0.0,0.0,0.0,0.0,5.973884291666666,0.3105439166666667,-1.6916471249999998,0.0,0.0,0.0,0.0,0.0,0.0,0.0,0.0,0.0
1403636581.4083488,8470,1403636581,358555500,imu4,0.0,0.0,0.0,1.0,99999.9,0.0,0.0,0.0,99999.9,0.0,0.0,0.0,99999.9,-0.04468042885105484,0.16545721308906244,0.027925268031909273,0.0,0.0,0.0,0.0,0.0,0.0,0.0,0.0,0.0,5.916678833333333,0.4903325,-1.6998193333333333,0.0,0.0,0.0,0.0,0.0,0.0,0.0,0.0,0.0
1403636581.4085248,8471,1403636581,363555500,imu4,0.0,0.0,0.0,1.0,99999.9,0.0,0.0,0.0,99999.9,0.0,0.0,0.0,99999.9,-0.059341194567807204,0.1466076571675237,0.01117010721276371,0.0,0.0,0.0,0.0,0.0,0.0,0.0,0.0,0.0,5.818612333333333,0.5066769166666666,-1.6834749166666665,0.0,0.0,0.0,0.0,0.0,0.0,0.0,0.0,0.0
1403636581.4086869,8472,1403636581,368555500,imu4,0.0,0.0,0.0,1.0,99999.9,0.0,0.0,0.0,99999.9,0.0,0.0,0.0,99999.9,-0.0747000919853573,0.1270599695451872,-0.003490658503988659,0.0,0.0,0.0,0.0,0.0,0.0,0.0,0.0,0.0,5.867645583333333,0.43312704166666666,-1.6916471249999998,0.0,0.0,0.0,0.0,0.0,0.0,0.0,0.0,0.0
1403636581.4087744,8473,1403636581,373555500,imu4,0.0,0.0,0.0,1.0,99999.9,0.0,0.0,0.0,99999.9,0.0,0.0,0.0,99999.9,-0.08587019919812101,0.1117010721276371,-0.014660765716752367,0.0,0.0,0.0,0.0,0.0,0.0,0.0,0.0,0.0,5.892162208333333,0.3350605416666666,-1.6834749166666665,0.0,0.0,0.0,0.0,0.0,0.0,0.0,0.0,0.0
1403636581.4089346,8474,1403636581,378555500,imu4,0.0,0.0,0.0,1.0,99999.9,0.0,0.0,0.0,99999.9,0.0,0.0,0.0,99999.9,-0.09145525280450287,0.09704030641088471,-0.032114058236695664,0.0,0.0,0.0,0.0,0.0,0.0,0.0,0.0,0.0,5.88399,0.20430520833333332,-1.7079915416666664,0.0,0.0,0.0,0.0,0.0,0.0,0.0,0.0,0.0
1403636581.4090207,8475,1403636581,383555500,imu4,0.0,0.0,0.0,1.0,99999.9,0.0,0.0,0.0,99999.9,0.0,0.0,0.0,99999.9,-0.09285151620609833,0.08307767239493008,-0.039793506945470715,0.0,0.0,0.0,0.0,0.0,0.0,0.0,0.0,0.0,5.93302325,0.11441091666666667,-1.7815414166666665,0.0,0.0,0.0,0.0,0.0,0.0,0.0,0.0,0.0
1403636581.4091125,8476,1403636581,388555500,imu4,0.0,0.0,0.0,1.0,99999.9,0.0,0.0,0.0,99999.9,0.0,0.0,0.0,99999.9,-0.09494591130849153,0.07260569688296412,-0.03839724354387525,0.0,0.0,0.0,0.0,0.0,0.0,0.0,0.0,0.0,5.916678833333333,0.07354987499999999,-1.838746875,0.0,0.0,0.0,0.0,0.0,0.0,0.0,0.0,0.0
1403636581.4092667,8477,1403636581,393555500,imu4,0.0,0.0,0.0,1.0,99999.9,0.0,0.0,0.0,99999.9,0.0,0.0,0.0,99999.9,-0.09564404300928926,0.05585053606381855,-0.031415926535897934,0.0,0.0,0.0,0.0,0.0,0.0,0.0,0.0,0.0,5.867645583333333,0.122583125,-1.7897136249999999,0.0,0.0,0.0,0.0,0.0,0.0,0.0,0.0,0.0
1403636581.409423,8478,1403636581,398555500,imu4,0.0,0.0,0.0,1.0,99999.9,0.0,0.0,0.0,99999.9,0.0,0.0,0.0,99999.9,-0.09634217471008698,0.04817108735504349,-0.02722713633111154,0.0,0.0,0.0,0.0,0.0,0.0,0.0,0.0,0.0,5.794095708333333,0.057205458333333334,-1.7488525833333333,0.0,0.0,0.0,0.0,0.0,0.0,0.0,0.0,0.0
1403636581.409576,8479,1403636581,403555500,imu4,0.0,0.0,0.0,1.0,99999.9,0.0,0.0,0.0,99999.9,0.0,0.0,0.0,99999.9,-0.09285151620609833,0.029321531433504733,-0.020943951023931952,0.0,0.0,0.0,0.0,0.0,0.0,0.0,0.0,0.0,5.8104401249999995,-0.06537766666666667,-1.6834749166666665,0.0,0.0,0.0,0.0,0.0,0.0,0.0,0.0,0.0
1403636581.4583585,8480,1403636581,408555500,imu4,0.0,0.0,0.0,1.0,99999.9,0.0,0.0,0.0,99999.9,0.0,0.0,0.0,99999.9,-0.08726646259971647,0.010471975511965976,-0.01117010721276371,0.0,0.0,0.0,0.0,0.0,0.0,0.0,0.0,0.0,5.802267916666667,-0.11441091666666667,-1.61809725,0.0,0.0,0.0,0.0,0.0,0.0,0.0,0.0,0.0
1403636581.4584386,8481,1403636581,413555500,imu4,0.0,0.0,0.0,1.0,99999.9,0.0,0.0,0.0,99999.9,0.0,0.0,0.0,99999.9,-0.07888888219014369,-0.005585053606381855,-0.006283185307179587,0.0,0.0,0.0,0.0,0.0,0.0,0.0,0.0,0.0,5.834956749999999,-0.15527195833333335,-1.5363751666666667,0.0,0.0,0.0,0.0,0.0,0.0,0.0,0.0,0.0
1403636581.4585288,8482,1403636581,418555500,imu4,0.0,0.0,0.0,1.0,99999.9,0.0,0.0,0.0,99999.9,0.0,0.0,0.0,99999.9,-0.06981317007977318,-0.024434609527920613,-0.004886921905584123,0.0,0.0,0.0,0.0,0.0,0.0,0.0,0.0,0.0,5.965712083333332,-0.17161637500000002,-1.4464808749999998,0.0,0.0,0.0,0.0,0.0,0.0,0.0,0.0,0.0
1403636581.4586163,8483,1403636581,423555500,imu4,0.0,0.0,0.0,1.0,99999.9,0.0,0.0,0.0,99999.9,0.0,0.0,0.0,99999.9,-0.05864306286700947,-0.04328416544945937,-0.0041887902047863905,0.0,0.0,0.0,0.0,0.0,0.0,0.0,0.0,0.0,5.990228708333333,-0.13892754166666665,-1.3811032083333332,0.0,0.0,0.0,0.0,0.0,0.0,0.0,0.0,0.0
1403636581.4587796,8484,1403636581,428555500,imu4,0.0,0.0,0.0,1.0,99999.9,0.0,0.0,0.0,99999.9,0.0,0.0,0.0,99999.9,-0.050963614158234416,-0.05235987755982988,-0.006981317007977318,0.0,0.0,0.0,0.0,0.0,0.0,0.0,0.0,0.0,5.998400916666666,-0.057205458333333334,-1.3320699583333333,0.0,0.0,0.0,0.0,0.0,0.0,0.0,0.0,0.0
1403636581.4589405,8485,1403636581,433555500,imu4,0.0,0.0,0.0,1.0,99999.9,0.0,0.0,0.0,99999.9,0.0,0.0,0.0,99999.9,-0.041189770347066175,-0.05864306286700947,-0.02024581932313422,0.0,0.0,0.0,0.0,0.0,0.0,0.0,0.0,0.0,6.055606375,-0.024516625,-1.348414375,0.0,0.0,0.0,0.0,0.0,0.0,0.0,0.0,0.0
1403636581.4591014,8486,1403636581,438555500,imu4,0.0,0.0,0.0,1.0,99999.9,0.0,0.0,0.0,99999.9,0.0,0.0,0.0,99999.9,-0.041887902047863905,-0.07120943348136866,-0.03700098014227979,0.0,0.0,0.0,0.0,0.0,0.0,0.0,0.0,0.0,6.047434166666666,0.04086104166666667,-1.4464808749999998,0.0,0.0,0.0,0.0,0.0,0.0,0.0,0.0,0.0
1403636581.4592583,8487,1403636581,443555500,imu4,0.0,0.0,0.0,1.0,99999.9,0.0,0.0,0.0,99999.9,0.0,0.0,0.0,99999.9,-0.04677482395344803,-0.08587019919812101,-0.05305800926062762,0.0,0.0,0.0,0.0,0.0,0.0,0.0,0.0,0.0,5.990228708333333,0.057205458333333334,-1.4464808749999998,0.0,0.0,0.0,0.0,0.0,0.0,0.0,0.0,0.0
1403636581.4594138,8488,1403636581,448555500,imu4,0.0,0.0,0.0,1.0,99999.9,0.0,0.0,0.0,99999.9,0.0,0.0,0.0,99999.9,-0.047472955654245766,-0.09494591130849153,-0.06073745796940267,0.0,0.0,0.0,0.0,0.0,0.0,0.0,0.0,0.0,5.93302325,0.057205458333333334,-1.5854084166666664,0.0,0.0,0.0,0.0,0.0,0.0,0.0,0.0,0.0
1403636581.4595659,8489,1403636581,453555500,imu4,0.0,0.0,0.0,1.0,99999.9,0.0,0.0,0.0,99999.9,0.0,0.0,0.0,99999.9,-0.048869219055841226,-0.1096066770252439,-0.07051130178057091,0.0,0.0,0.0,0.0,0.0,0.0,0.0,0.0,0.0,5.998400916666666,0.13075533333333333,-1.7161637499999998,0.0,0.0,0.0,0.0,0.0,0.0,0.0,0.0,0.0
1403636581.50921,8490,1403636581,458555500,imu4,0.0,0.0,0.0,1.0,99999.9,0.0,0.0,0.0,99999.9,0.0,0.0,0.0,99999.9,-0.05375614096142535,-0.12775810124598494,-0.0767944870877505,0.0,0.0,0.0,0.0,0.0,0.0,0.0,0.0,0.0,5.990228708333333,0.196133,-1.8060580416666667,0.0,0.0,0.0,0.0,0.0,0.0,0.0,0.0,0.0
1403636581.509304,8491,1403636581,463555500,imu4,0.0,0.0,0.0,1.0,99999.9,0.0,0.0,0.0,99999.9,0.0,0.0,0.0,99999.9,-0.057246799465414,-0.14032447186034408,-0.07819075048934597,0.0,0.0,0.0,0.0,0.0,0.0,0.0,0.0,0.0,6.0801229999999995,0.17161637500000002,-1.9531577916666665,0.0,0.0,0.0,0.0,0.0,0.0,0.0,0.0,0.0
1403636581.509343,8492,1403636581,468555500,imu4,0.0,0.0,0.0,1.0,99999.9,0.0,0.0,0.0,99999.9,0.0,0.0,0.0,99999.9,-0.0635299847725936,-0.15289084247470325,-0.07888888219014369,0.0,0.0,0.0,0.0,0.0,0.0,0.0,0.0,0.0,6.202706124999999,0.08989429166666667,-2.0593964999999996,0.0,0.0,0.0,0.0,0.0,0.0,0.0,0.0,0.0
1403636581.5093784,8493,1403636581,473555500,imu4,0.0,0.0,0.0,1.0,99999.9,0.0,0.0,0.0,99999.9,0.0,0.0,0.0,99999.9,-0.06213372137099814,-0.1605702911834783,-0.07888888219014369,0.0,0.0,0.0,0.0,0.0,0.0,0.0,0.0,0.0,6.317117041666666,0.04086104166666667,-2.0512242916666668,0.0,0.0,0.0,0.0,0.0,0.0,0.0,0.0,0.0
1403636581.509414,8494,1403636581,478555500,imu4,0.0,0.0,0.0,1.0,99999.9,0.0,0.0,0.0,99999.9,0.0,0.0,0.0,99999.9,-0.06073745796940267,-0.16824973989225336,-0.07051130178057091,0.0,0.0,0.0,0.0,0.0,0.0,0.0,0.0,0.0,6.398839124999999,-0.024516625,-1.9940188333333333,0.0,0.0,0.0,0.0,0.0,0.0,0.0,0.0,0.0
1403636581.5094495,8495,1403636581,483555500,imu4,0.0,0.0,0.0,1.0,99999.9,0.0,0.0,0.0,99999.9,0.0,0.0,0.0,99999.9,-0.060039326268604934,-0.17872171540421936,-0.06213372137099814,0.0,0.0,0.0,0.0,0.0,0.0,0.0,0.0,0.0,6.578627708333332,-0.122583125,-1.9695022083333333,0.0,0.0,0.0,0.0,0.0,0.0,0.0,0.0,0.0
1403636581.50948,8496,1403636581,488555500,imu4,0.0,0.0,0.0,1.0,99999.9,0.0,0.0,0.0,99999.9,0.0,0.0,0.0,99999.9,-0.05305800926062762,-0.19128808601857852,-0.0439822971502571,0.0,0.0,0.0,0.0,0.0,0.0,0.0,0.0,0.0,6.676694208333332,-0.07354987499999999,-1.9204689583333332,0.0,0.0,0.0,0.0,0.0,0.0,0.0,0.0,0.0
1403636581.5095105,8497,1403636581,493555500,imu4,0.0,0.0,0.0,1.0,99999.9,0.0,0.0,0.0,99999.9,0.0,0.0,0.0,99999.9,-0.04468042885105484,-0.20455258833373544,-0.025132741228718346,0.0,0.0,0.0,0.0,0.0,0.0,0.0,0.0,0.0,6.725727458333332,-0.07354987499999999,-1.7488525833333333,0.0,0.0,0.0,0.0,0.0,0.0,0.0,0.0,0.0
1403636581.5095978,8498,1403636581,498555500,imu4,0.0,0.0,0.0,1.0,99999.9,0.0,0.0,0.0,99999.9,0.0,0.0,0.0,99999.9,-0.039793506945470715,-0.2059488517353309,-0.0020943951023931952,0.0,0.0,0.0,0.0,0.0,0.0,0.0,0.0,0.0,6.856482791666667,0.032688833333333334,-1.6262694583333333,0.0,0.0,0.0,0.0,0.0,0.0,0.0,0.0,0.0
1403636581.5096967,8499,1403636581,503555500,imu4,0.0,0.0,0.0,1.0,99999.9,0.0,0.0,0.0,99999.9,0.0,0.0,0.0,99999.9,-0.039793506945470715,-0.21851522234969004,0.02583087292951608,0.0,0.0,0.0,0.0,0.0,0.0,0.0,0.0,0.0,6.921860458333333,0.11441091666666667,-1.5036863333333332,0.0,0.0,0.0,0.0,0.0,0.0,0.0,0.0,0.0
1403636581.5583682,8500,1403636581,508555500,imu4,0.0,0.0,0.0,1.0,99999.9,0.0,0.0,0.0,99999.9,0.0,0.0,0.0,99999.9,-0.03769911184307752,-0.22130774915288098,0.04817108735504349,0.0,0.0,0.0,0.0,0.0,0.0,0.0,0.0,0.0,6.9300326666666665,0.196133,-1.3320699583333333,0.0,0.0,0.0,0.0,0.0,0.0,0.0,0.0,0.0
1403636581.558543,8501,1403636581,513555500,imu4,0.0,0.0,0.0,1.0,99999.9,0.0,0.0,0.0,99999.9,0.0,0.0,0.0,99999.9,-0.04328416544945937,-0.22270401255447644,0.06422811647339133,0.0,0.0,0.0,0.0,0.0,0.0,0.0,0.0,0.0,6.938204874999999,0.08989429166666667,-1.2176590416666666,0.0,0.0,0.0,0.0,0.0,0.0,0.0,0.0,0.0
1403636581.5587056,8502,1403636581,518555500,imu4,0.0,0.0,0.0,1.0,99999.9,0.0,0.0,0.0,99999.9,0.0,0.0,0.0,99999.9,-0.0439822971502571,-0.2241002759560719,0.07958701389094143,0.0,0.0,0.0,0.0,0.0,0.0,0.0,0.0,0.0,6.962721499999999,0.0,-1.2585200833333332,0.0,0.0,0.0,0.0,0.0,0.0,0.0,0.0,0.0
1403636581.5587914,8503,1403636581,523555500,imu4,0.0,0.0,0.0,1.0,99999.9,0.0,0.0,0.0,99999.9,0.0,0.0,0.0,99999.9,-0.04328416544945937,-0.2234021442552742,0.0879645943005142,0.0,0.0,0.0,0.0,0.0,0.0,0.0,0.0,0.0,6.946377083333333,-0.122583125,-1.2340034583333332,0.0,0.0,0.0,0.0,0.0,0.0,0.0,0.0,0.0
1403636581.5590277,8504,1403636581,528555500,imu4,0.0,0.0,0.0,1.0,99999.9,0.0,0.0,0.0,99999.9,0.0,0.0,0.0,99999.9,-0.03560471674068433,-0.2192133540504878,0.10053096491487339,0.0,0.0,0.0,0.0,0.0,0.0,0.0,0.0,0.0,6.872827208333333,-0.29419949999999995,-1.348414375,0.0,0.0,0.0,0.0,0.0,0.0,0.0,0.0,0.0
1403636581.559185,8505,1403636581,533555500,imu4,0.0,0.0,0.0,1.0,99999.9,0.0,0.0,0.0,99999.9,0.0,0.0,0.0,99999.9,-0.027925268031909273,-0.21572269554649914,0.11379546723003027,0.0,0.0,0.0,0.0,0.0,0.0,0.0,0.0,0.0,6.848310583333333,-0.3023717083333333,-1.593580625,0.0,0.0,0.0,0.0,0.0,0.0,0.0,0.0,0.0
1403636581.5593462,8506,1403636581,538555500,imu4,0.0,0.0,0.0,1.0,99999.9,0.0,0.0,0.0,99999.9,0.0,0.0,0.0,99999.9,-0.023038346126325153,-0.21642082724729686,0.12985249634837812,0.0,0.0,0.0,0.0,0.0,0.0,0.0,0.0,0.0,6.733899666666666,-0.29419949999999995,-1.7488525833333333,0.0,0.0,0.0,0.0,0.0,0.0,0.0,0.0,0.0
1403636581.5594308,8507,1403636581,543555500,imu4,0.0,0.0,0.0,1.0,99999.9,0.0,0.0,0.0,99999.9,0.0,0.0,0.0,99999.9,-0.024434609527920613,-0.2199114857512855,0.1514945790731078,0.0,0.0,0.0,0.0,0.0,0.0,0.0,0.0,0.0,6.71755525,-0.318716125,-1.9122967499999999,0.0,0.0,0.0,0.0,0.0,0.0,0.0,0.0,0.0
1403636581.5595949,8508,1403636581,548555500,imu4,0.0,0.0,0.0,1.0,99999.9,0.0,0.0,0.0,99999.9,0.0,0.0,0.0,99999.9,-0.023736477827122883,-0.2331759880664424,0.15917402778188286,0.0,0.0,0.0,0.0,0.0,0.0,0.0,0.0,0.0,6.987238125,-0.3105439166666667,-2.1411185833333333,0.0,0.0,0.0,0.0,0.0,0.0,0.0,0.0,0.0
1403636581.5596812,8509,1403636581,553555500,imu4,0.0,0.0,0.0,1.0,99999.9,0.0,0.0,0.0,99999.9,0.0,0.0,0.0,99999.9,-0.023736477827122883,-0.24434609527920614,0.16336281798666924,0.0,0.0,0.0,0.0,0.0,0.0,0.0,0.0,0.0,7.2487487916666655,-0.17161637500000002,-2.3045627499999997,0.0,0.0,0.0,0.0,0.0,0.0,0.0,0.0,0.0
1403636581.608801,8510,1403636581,558555500,imu4,0.0,0.0,0.0,1.0,99999.9,0.0,0.0,0.0,99999.9,0.0,0.0,0.0,99999.9,-0.025132741228718346,-0.24504422698000386,0.15987215948268058,0.0,0.0,0.0,0.0,0.0,0.0,0.0,0.0,0.0,7.461226208333334,0.032688833333333334,-2.40262925,0.0,0.0,0.0,0.0,0.0,0.0,0.0,0.0,0.0
1403636581.6089041,8511,1403636581,563555500,imu4,0.0,0.0,0.0,1.0,99999.9,0.0,0.0,0.0,99999.9,0.0,0.0,0.0,99999.9,-0.019547687622336492,-0.25132741228718347,0.15638150097869194,0.0,0.0,0.0,0.0,0.0,0.0,0.0,0.0,0.0,7.820803375,0.23699404166666665,-2.476179125,0.0,0.0,0.0,0.0,0.0,0.0,0.0,0.0,0.0
1403636581.608942,8512,1403636581,568555500,imu4,0.0,0.0,0.0,1.0,99999.9,0.0,0.0,0.0,99999.9,0.0,0.0,0.0,99999.9,-0.013264502315156905,-0.2548180707911721,0.1556833692778942,0.0,0.0,0.0,0.0,0.0,0.0,0.0,0.0,0.0,8.09048625,0.4004382083333333,-2.5252123749999997,0.0,0.0,0.0,0.0,0.0,0.0,0.0,0.0,0.0
1403636581.60898,8513,1403636581,573555500,imu4,0.0,0.0,0.0,1.0,99999.9,0.0,0.0,0.0,99999.9,0.0,0.0,0.0,99999.9,-0.00767944870877505,-0.25761059759436306,0.15219271077390556,0.0,0.0,0.0,0.0,0.0,0.0,0.0,0.0,0.0,8.278447041666666,0.40861041666666664,-2.4434902916666665,0.0,0.0,0.0,0.0,0.0,0.0,0.0,0.0,0.0
1403636581.6090117,8514,1403636581,578555500,imu4,0.0,0.0,0.0,1.0,99999.9,0.0,0.0,0.0,99999.9,0.0,0.0,0.0,99999.9,0.0,-0.249931148885588,0.1466076571675237,0.0,0.0,0.0,0.0,0.0,0.0,0.0,0.0,0.0,8.474580041666666,0.2860272916666666,-2.4843513333333336,0.0,0.0,0.0,0.0,0.0,0.0,0.0,0.0,0.0
1403636581.6090848,8515,1403636581,583555500,imu4,0.0,0.0,0.0,1.0,99999.9,0.0,0.0,0.0,99999.9,0.0,0.0,0.0,99999.9,0.017453292519943295,-0.2457423586808016,0.14032447186034408,0.0,0.0,0.0,0.0,0.0,0.0,0.0,0.0,0.0,8.523613291666665,0.13892754166666665,-2.459834708333333,0.0,0.0,0.0,0.0,0.0,0.0,0.0,0.0,0.0
1403636581.6091902,8516,1403636581,588555500,imu4,0.0,0.0,0.0,1.0,99999.9,0.0,0.0,0.0,99999.9,0.0,0.0,0.0,99999.9,0.04328416544945937,-0.23876104167282428,0.1291543646475804,0.0,0.0,0.0,0.0,0.0,0.0,0.0,0.0,0.0,8.425546791666665,0.032688833333333334,-2.4516625,0.0,0.0,0.0,0.0,0.0,0.0,0.0,0.0,0.0
1403636581.609425,8517,1403636581,593555500,imu4,0.0,0.0,0.0,1.0,99999.9,0.0,0.0,0.0,99999.9,0.0,0.0,0.0,99999.9,0.057246799465414,-0.23457225146803787,0.11239920382843484,0.0,0.0,0.0,0.0,0.0,0.0,0.0,0.0,0.0,8.196724958333332,0.0,-2.3944570416666666,0.0,0.0,0.0,0.0,0.0,0.0,0.0,0.0,0.0
1403636581.6094618,8518,1403636581,598555500,imu4,0.0,0.0,0.0,1.0,99999.9,0.0,0.0,0.0,99999.9,0.0,0.0,0.0,99999.9,0.07051130178057091,-0.22479840765686968,0.09773843811168245,0.0,0.0,0.0,0.0,0.0,0.0,0.0,0.0,0.0,8.065969625,0.0,-2.3862848333333333,0.0,0.0,0.0,0.0,0.0,0.0,0.0,0.0,0.0
1403636581.609496,8519,1403636581,603555500,imu4,0.0,0.0,0.0,1.0,99999.9,0.0,0.0,0.0,99999.9,0.0,0.0,0.0,99999.9,0.0747000919853573,-0.22689280275926282,0.09354964790689606,0.0,0.0,0.0,0.0,0.0,0.0,0.0,0.0,0.0,7.9433865,0.04086104166666667,-2.378112625,0.0,0.0,0.0,0.0,0.0,0.0,0.0,0.0,0.0
1403636581.659387,8520,1403636581,608555500,imu4,0.0,0.0,0.0,1.0,99999.9,0.0,0.0,0.0,99999.9,0.0,0.0,0.0,99999.9,0.08307767239493008,-0.22200588085367873,0.09075712110370514,0.0,0.0,0.0,0.0,0.0,0.0,0.0,0.0,0.0,7.771770125,-0.10623870833333333,-2.3535959999999996,0.0,0.0,0.0,0.0,0.0,0.0,0.0,0.0,0.0
1403636581.6594274,8521,1403636581,613555500,imu4,0.0,0.0,0.0,1.0,99999.9,0.0,0.0,0.0,99999.9,0.0,0.0,0.0,99999.9,0.08726646259971647,-0.2150245638457014,0.1075122819228507,0.0,0.0,0.0,0.0,0.0,0.0,0.0,0.0,0.0,7.7472535,-0.21247741666666667,-2.4434902916666665,0.0,0.0,0.0,0.0,0.0,0.0,0.0,0.0,0.0
1403636581.6594653,8522,1403636581,618555500,imu4,0.0,0.0,0.0,1.0,99999.9,0.0,0.0,0.0,99999.9,0.0,0.0,0.0,99999.9,0.08936085770210968,-0.20734511513692636,0.1291543646475804,0.0,0.0,0.0,0.0,0.0,0.0,0.0,0.0,0.0,7.779942333333333,-0.20430520833333332,-2.4843513333333336,0.0,0.0,0.0,0.0,0.0,0.0,0.0,0.0,0.0
1403636581.6595583,8523,1403636581,623555500,imu4,0.0,0.0,0.0,1.0,99999.9,0.0,0.0,0.0,99999.9,0.0,0.0,0.0,99999.9,0.08587019919812101,-0.19198621771937624,0.14800392056911915,0.0,0.0,0.0,0.0,0.0,0.0,0.0,0.0,0.0,7.820803375,-0.11441091666666667,-2.549729,0.0,0.0,0.0,0.0,0.0,0.0,0.0,0.0,0.0
1403636581.6595984,8524,1403636581,628555500,imu4,0.0,0.0,0.0,1.0,99999.9,0.0,0.0,0.0,99999.9,0.0,0.0,0.0,99999.9,0.07190756518216637,-0.18011797880581482,0.16615534478986016,0.0,0.0,0.0,0.0,0.0,0.0,0.0,0.0,0.0,7.984247541666667,0.10623870833333333,-2.7131731666666665,0.0,0.0,0.0,0.0,0.0,0.0,0.0,0.0,0.0
1403636581.6596339,8525,1403636581,633555500,imu4,0.0,0.0,0.0,1.0,99999.9,0.0,0.0,0.0,99999.9,0.0,0.0,0.0,99999.9,0.04956735075663895,-0.16824973989225336,0.18570303241219666,0.0,0.0,0.0,0.0,0.0,0.0,0.0,0.0,0.0,8.131347291666666,0.392266,-2.7703786249999998,0.0,0.0,0.0,0.0,0.0,0.0,0.0,0.0,0.0
1403636581.6596675,8526,1403636581,638555500,imu4,0.0,0.0,0.0,1.0,99999.9,0.0,0.0,0.0,99999.9,0.0,0.0,0.0,99999.9,0.024434609527920613,-0.16406094968746698,0.2017600615305445,0.0,0.0,0.0,0.0,0.0,0.0,0.0,0.0,0.0,8.213069375,0.6537766666666667,-2.8357562916666668,0.0,0.0,0.0,0.0,0.0,0.0,0.0,0.0,0.0
1403636581.6596994,8527,1403636581,643555500,imu4,0.0,0.0,0.0,1.0,99999.9,0.0,0.0,0.0,99999.9,0.0,0.0,0.0,99999.9,-0.0020943951023931952,-0.1668534764906579,0.210835773640915,0.0,0.0,0.0,0.0,0.0,0.0,0.0,0.0,0.0,8.441891208333333,0.6864655000000001,-2.8357562916666668,0.0,0.0,0.0,0.0,0.0,0.0,0.0,0.0,0.0
1403636581.6597629,8528,1403636581,648555500,imu4,0.0,0.0,0.0,1.0,99999.9,0.0,0.0,0.0,99999.9,0.0,0.0,0.0,99999.9,-0.02652900463031381,-0.17243853009703977,0.20734511513692636,0.0,0.0,0.0,0.0,0.0,0.0,0.0,0.0,0.0,8.834157208333334,0.6782932916666666,-2.8929617499999996,0.0,0.0,0.0,0.0,0.0,0.0,0.0,0.0,0.0
1403636581.6597972,8529,1403636581,653555500,imu4,0.0,0.0,0.0,1.0,99999.9,0.0,0.0,0.0,99999.9,0.0,0.0,0.0,99999.9,-0.041189770347066175,-0.17523105690023066,0.1850049007113989,0.0,0.0,0.0,0.0,0.0,0.0,0.0,0.0,0.0,9.152873333333332,0.5720545833333333,-2.8766173333333334,0.0,0.0,0.0,0.0,0.0,0.0,0.0,0.0,0.0
1403636581.7083323,8530,1403636581,658555500,imu4,0.0,0.0,0.0,1.0,99999.9,0.0,0.0,0.0,99999.9,0.0,0.0,0.0,99999.9,-0.05166174585903216,-0.16406094968746698,0.153588974175501,0.0,0.0,0.0,0.0,0.0,0.0,0.0,0.0,0.0,9.406211791666665,0.40861041666666664,-2.8602729166666667,0.0,0.0,0.0,0.0,0.0,0.0,0.0,0.0,0.0
1403636581.7084165,8531,1403636581,663555500,imu4,0.0,0.0,0.0,1.0,99999.9,0.0,0.0,0.0,99999.9,0.0,0.0,0.0,99999.9,-0.046076692252650306,-0.1556833692778942,0.11798425743481668,0.0,0.0,0.0,0.0,0.0,0.0,0.0,0.0,0.0,9.553311541666666,0.34323275000000003,-2.9256505833333333,0.0,0.0,0.0,0.0,0.0,0.0,0.0,0.0,0.0
1403636581.708573,8532,1403636581,668555500,imu4,0.0,0.0,0.0,1.0,99999.9,0.0,0.0,0.0,99999.9,0.0,0.0,0.0,99999.9,-0.03420845333908886,-0.1445132620651305,0.08237954069413235,0.0,0.0,0.0,0.0,0.0,0.0,0.0,0.0,0.0,9.528794916666666,0.40861041666666664,-2.966511625,0.0,0.0,0.0,0.0,0.0,0.0,0.0,0.0,0.0
1403636581.7087333,8533,1403636581,673555500,imu4,0.0,0.0,0.0,1.0,99999.9,0.0,0.0,0.0,99999.9,0.0,0.0,0.0,99999.9,-0.021642082724729686,-0.12775810124598494,0.04258603374866164,0.0,0.0,0.0,0.0,0.0,0.0,0.0,0.0,0.0,9.324489708333333,0.4004382083333333,-2.974683833333333,0.0,0.0,0.0,0.0,0.0,0.0,0.0,0.0,0.0
1403636581.7088988,8534,1403636581,678555500,imu4,0.0,0.0,0.0,1.0,99999.9,0.0,0.0,0.0,99999.9,0.0,0.0,0.0,99999.9,-0.0153588974175501,-0.12636183784438945,0.005585053606381855,0.0,0.0,0.0,0.0,0.0,0.0,0.0,0.0,0.0,9.193734375,0.32688833333333334,-3.0318892916666664,0.0,0.0,0.0,0.0,0.0,0.0,0.0,0.0,0.0
1403636581.7089837,8535,1403636581,683555500,imu4,0.0,0.0,0.0,1.0,99999.9,0.0,0.0,0.0,99999.9,0.0,0.0,0.0,99999.9,-0.003490658503988659,-0.12147491593880534,-0.028623399732707,0.0,0.0,0.0,0.0,0.0,0.0,0.0,0.0,0.0,8.932223708333334,0.196133,-3.0645781249999997,0.0,0.0,0.0,0.0,0.0,0.0,0.0,0.0,0.0
1403636581.709073,8536,1403636581,688555500,imu4,0.0,0.0,0.0,1.0,99999.9,0.0,0.0,0.0,99999.9,0.0,0.0,0.0,99999.9,0.012566370614359173,-0.11798425743481668,-0.04677482395344803,0.0,0.0,0.0,0.0,0.0,0.0,0.0,0.0,0.0,8.67888525,-0.13075533333333333,-3.0645781249999997,0.0,0.0,0.0,0.0,0.0,0.0,0.0,0.0,0.0
1403636581.7091634,8537,1403636581,693555500,imu4,0.0,0.0,0.0,1.0,99999.9,0.0,0.0,0.0,99999.9,0.0,0.0,0.0,99999.9,0.032114058236695664,-0.11798425743481668,-0.056548667764616284,0.0,0.0,0.0,0.0,0.0,0.0,0.0,0.0,0.0,8.507268875,-0.318716125,-3.1463002083333333,0.0,0.0,0.0,0.0,0.0,0.0,0.0,0.0,0.0
1403636581.709319,8538,1403636581,698555500,imu4,0.0,0.0,0.0,1.0,99999.9,0.0,0.0,0.0,99999.9,0.0,0.0,0.0,99999.9,0.05515240436302082,-0.12007865253720987,-0.04258603374866164,0.0,0.0,0.0,0.0,0.0,0.0,0.0,0.0,0.0,8.376513541666666,-0.367749375,-3.1054391666666663,0.0,0.0,0.0,0.0,0.0,0.0,0.0,0.0,0.0
1403636581.7094016,8539,1403636581,703555500,imu4,0.0,0.0,0.0,1.0,99999.9,0.0,0.0,0.0,99999.9,0.0,0.0,0.0,99999.9,0.0747000919853573,-0.10890854532444616,-0.0153588974175501,0.0,0.0,0.0,0.0,0.0,0.0,0.0,0.0,0.0,8.229413791666666,-0.2778550833333333,-3.0564059166666664,0.0,0.0,0.0,0.0,0.0,0.0,0.0,0.0,0.0
1403636581.7583792,8540,1403636581,708555500,imu4,0.0,0.0,0.0,1.0,99999.9,0.0,0.0,0.0,99999.9,0.0,0.0,0.0,99999.9,0.09075712110370514,-0.10053096491487339,0.04049163864626844,0.0,0.0,0.0,0.0,0.0,0.0,0.0,0.0,0.0,8.311135875,-0.13892754166666665,-3.0318892916666664,0.0,0.0,0.0,0.0,0.0,0.0,0.0,0.0,0.0
1403636581.7585578,8541,1403636581,713555500,imu4,0.0,0.0,0.0,1.0,99999.9,0.0,0.0,0.0,99999.9,0.0,0.0,0.0,99999.9,0.09354964790689606,-0.08726646259971647,0.09285151620609833,0.0,0.0,0.0,0.0,0.0,0.0,0.0,0.0,0.0,8.441891208333333,-0.008172208333333333,-3.0482337083333335,0.0,0.0,0.0,0.0,0.0,0.0,0.0,0.0,0.0
1403636581.758641,8542,1403636581,718555500,imu4,0.0,0.0,0.0,1.0,99999.9,0.0,0.0,0.0,99999.9,0.0,0.0,0.0,99999.9,0.08936085770210968,-0.07609635538695278,0.15009831567151233,0.0,0.0,0.0,0.0,0.0,0.0,0.0,0.0,0.0,8.490924458333334,0.08172208333333333,-3.0318892916666664,0.0,0.0,0.0,0.0,0.0,0.0,0.0,0.0,0.0
1403636581.7587311,8543,1403636581,723555500,imu4,0.0,0.0,0.0,1.0,99999.9,0.0,0.0,0.0,99999.9,0.0,0.0,0.0,99999.9,0.08098327729253688,-0.06073745796940267,0.19128808601857852,0.0,0.0,0.0,0.0,0.0,0.0,0.0,0.0,0.0,8.662540833333333,-0.024516625,-3.0645781249999997,0.0,0.0,0.0,0.0,0.0,0.0,0.0,0.0,0.0
1403636581.7588909,8544,1403636581,728555500,imu4,0.0,0.0,0.0,1.0,99999.9,0.0,0.0,0.0,99999.9,0.0,0.0,0.0,99999.9,0.07609635538695278,-0.046076692252650306,0.21572269554649914,0.0,0.0,0.0,0.0,0.0,0.0,0.0,0.0,0.0,8.785123958333333,-0.08989429166666667,-3.0727503333333335,0.0,0.0,0.0,0.0,0.0,0.0,0.0,0.0,0.0
1403636581.7589834,8545,1403636581,733555500,imu4,0.0,0.0,0.0,1.0,99999.9,0.0,0.0,0.0,99999.9,0.0,0.0,0.0,99999.9,0.06771877497737998,-0.039095375244672985,0.22130774915288098,0.0,0.0,0.0,0.0,0.0,0.0,0.0,0.0,0.0,8.866846041666665,-0.16344416666666667,-3.0809225416666663,0.0,0.0,0.0,0.0,0.0,0.0,0.0,0.0,0.0
